{
  "resourceType": "Bundle",
  "id": "D5537E37-FFC6-4E7B-9BC4-336E871C0F29",
  "identifier": {
    "system": "https://tools.ietf.org/html/rfc4122",
    "value": "821533D3-3E0F-11EB-8111-F40343488B16"
  },
  "type": "searchset",
  "timestamp": "2020-12-14T13:23:10+00:00",
  "total": 48,
  "entry": [
    {
      "fullUrl": "https://api.service.nhs.uk/summary-care-record/FHIR/R4/Composition/BF4180FD-C403-4EF7-A4AB-E07303AF5477",
      "resource": {
        "resourceType": "Composition",
        "id": "BF4180FD-C403-4EF7-A4AB-E07303AF5477",
        "meta": {
          "lastUpdated": "2020-11-17T01:00:00+00:00"
        },
        "identifier": {
          "system": "https://tools.ietf.org/html/rfc4122",
          "value": "BF4180FD-C403-4EF7-A4AB-E07303AF5477"
        },
        "status": "final",
        "type": {
          "coding": [
            {
              "system": "http://snomed.info/sct",
              "code": "196981000000101",
              "display": "General Practice Summary"
            }
          ]
        },
        "category": [
          {
            "coding": [
              {
                "system": "http://snomed.info/sct",
                "code": "163171000000105",
                "display": "Care Professional Documentation"
              }
            ]
          }
        ],
        "subject": {
          "reference": "Patient/01F9B243-02DC-42F4-8F51-2AF2A99DA377"
        },
        "date": "2020-11-17T01:00:00+00:00",
        "author": [
          {
            "reference": "PractitionerRole/D29F2286-A962-4034-B7D4-32CCB3610204"
          }
        ],
        "relatesTo": [
          {
            "code": "replaces",
            "targetIdentifier": {
              "value": "D18B57ED-992E-45A2-A6AF-55200D20F48E"
            }
          }
        ],
        "section": [
          {
            "title": "General Practice Summary",
            "code": {
              "coding": [
                {
                  "code": "Title"
                }
              ]
            },
            "text": {
              "status": "generated",
              "div": "<div xmlns=\"http://www.w3.org/1999/xhtml\"><h3 id=\"Disclaimer\">Sourced from the patient's General Practice record. This summary may not include all the information pertinent to this patient.</h3><p id=\"CreateTime\">Summary Created: 14-May-2020 14:31</p><p id=\"RegistrationStartedStatement\" class=\"HighlightedStatement\">At the time this record was created, this patient had recently registered with the GP Practice. GP Summary information may not be complete.</p><p id=\"Author\">Created by: SMITH, Sean (Mr)</p><p id=\"Practice\">EMISWebCR1 50004, Fulford Grange, Rawdon, Leeds, West Yorkshire, LS19 7BY.</p></div>"
            }
          },
          {
            "title": "Allergies and Adverse Reactions",
            "code": {
              "coding": [
                {
                  "code": "AllergiesHeader"
                }
              ]
            },
            "text": {
              "status": "generated",
              "div": "<div xmlns=\"http://www.w3.org/1999/xhtml\"><table summary=\"This table includes information about this patient's allergies and adverse reactions.\" id=\"Allergies\"><thead><tr><th>Date</th><th>Description</th><th>Certainty</th><th>Severity</th><th>Supporting Information</th></tr></thead><tbody><tr class=\"oddRow\"><td>12-May-2020</td><td>Toxic reaction to wasp sting</td><td/><td/><td>Problem; First</td></tr></tbody></table></div>"
            }
          },
          {
            "title": "Acute Medications (For the 12 month period 14-May-2019 to 14-May-2020)",
            "code": {
              "coding": [
                {
                  "code": "AcuteMedsHeader"
                }
              ]
            },
            "text": {
              "status": "generated",
              "div": "<div xmlns=\"http://www.w3.org/1999/xhtml\"><table summary=\"This table includes information about this patient's acute medications.\" id=\"AcuteMeds\"><thead><tr><th>Type</th><th>Date</th><th>Medication Item</th><th>Dosage Instructions</th><th>Quantity</th></tr></thead><tbody><tr class=\"oddRow\"><td>Acute Medication</td><td>Prescribed: 12-May-2020</td><td>Co-codamol 8mg/500mg effervescent tablets</td><td>One To Be Taken Four Times A Day</td><td>112 tablet</td></tr></tbody></table></div>"
            }
          },
          {
            "title": "Current Repeat Medications",
            "code": {
              "coding": [
                {
                  "code": "RepeatMedsHeader"
                }
              ]
            },
            "text": {
              "status": "generated",
              "div": "<div xmlns=\"http://www.w3.org/1999/xhtml\"><table summary=\"This table includes information about this patient's current repeat medications.\" id=\"RepeatMeds\"><thead><tr><th>Type</th><th>Date</th><th>Medication Item</th><th>Dosage Instructions</th><th>Quantity</th></tr></thead><tbody><tr class=\"oddRow\"><td>Repeat Medication</td><td>Last Issued: 12-May-2020</td><td>Paracetamol 250mg/5ml oral suspension</td><td>One 5ml Spoonful Every 4 To 6 Hours When Necessary. No More Than 4 doses in 24 Hours</td><td>40 ml</td></tr></tbody></table></div>"
            }
          },
          {
            "title": "Discontinued Repeat Medications (For the 6 month period 14-Nov-2019 to 14-May-2020)",
            "code": {
              "coding": [
                {
                  "code": "DiscRepeatMedsHeader"
                }
              ]
            },
            "text": {
              "status": "generated",
              "div": "<div xmlns=\"http://www.w3.org/1999/xhtml\"><table summary=\"This table includes information about this patient's discontinued repeat medications.\" id=\"DiscRepeatMeds\"><thead><tr><th>Type</th><th>Date</th><th>Medication Item</th><th>Dosage Instructions</th><th>Quantity</th></tr></thead><tbody><tr><td colspan=\"5\">No relevant information available for this category.</td></tr></tbody></table></div>"
            }
          },
          {
            "title": "Risks to Patient",
            "code": {
              "coding": [
                {
                  "code": "RisksToPatientHeader"
                }
              ]
            },
            "text": {
              "status": "generated",
              "div": "<div xmlns=\"http://www.w3.org/1999/xhtml\"><table id=\"RisksToPatient\"><thead><tr><th>Date</th><th>Description</th><th>Additional information</th></tr></thead><tbody><tr class=\"oddRow\"><td>14-May-2020</td><td>Low risk category for developing complication from COVID-19 infection</td><td>Problem; Review</td></tr></tbody></table></div>"
            }
          },
          {
            "title": "Diagnoses",
            "code": {
              "coding": [
                {
                  "code": "DiagnosesHeader"
                }
              ]
            },
            "text": {
              "status": "generated",
              "div": "<div xmlns=\"http://www.w3.org/1999/xhtml\"><table id=\"Diagnoses\"><thead><tr><th>Date</th><th>Description</th><th>Additional information</th></tr></thead><tbody><tr class=\"oddRow\"><td>13-May-2020</td><td>COVID-19 confirmed by laboratory test</td><td>Problem; First, test</td></tr></tbody></table></div>"
            },
            "entry": [
              {
                "reference": "Condition/FCB84E15-02E5-495C-B334-D0685DCB0687"
              },
              {
                "reference": "Condition/0F582D97-8F89-11EA-8B2D-B741F13EFC47"
              },
              {
                "reference": "Condition/958E584C-25B8-4BD7-A71D-7625FDC1ACD6"
              },
              {
                "reference": "Condition/8CEB2867-551B-43D0-88B5-3278DA20A6B0"
              },
              {
                "reference": "Condition/6ECDAE6D-32AB-421C-AA8F-0B1ABA454C70"
              }
            ]
          },
          {
            "title": "Problems and Issues",
            "code": {
              "coding": [
                {
                  "code": "ProblemsHeader"
                }
              ]
            },
            "text": {
              "status": "generated",
              "div": "<div xmlns=\"http://www.w3.org/1999/xhtml\"><table id=\"Problems\"><thead><tr><th>Date</th><th>Description</th><th>Additional information</th></tr></thead><tbody><tr class=\"oddRow\"><td>14-May-2020</td><td>2019-nCoV (novel coronavirus) detected</td><td>Significant Active</td></tr></tbody></table></div>"
            }
          },
          {
            "title": "Clinical Observations and Findings",
            "code": {
              "coding": [
                {
                  "code": "ObservationsHeader"
                }
              ]
            },
            "text": {
              "status": "generated",
              "div": "<div xmlns=\"http://www.w3.org/1999/xhtml\"><table id=\"Observations\"><thead><tr><th>Date</th><th>Description</th><th>Additional information</th></tr></thead><tbody><tr class=\"oddRow\"><td>14-May-2020</td><td>2019-nCoV (novel coronavirus) detected</td><td>Problem; New</td></tr></tbody></table></div>"
            }
          },
          {
            "title": "Treatments",
            "code": {
              "coding": [
                {
                  "code": "TreatmentsHeader"
                }
              ]
            },
            "text": {
              "status": "generated",
              "div": "<div xmlns=\"http://www.w3.org/1999/xhtml\"><table id=\"Treatments\"><thead><tr><th>Date</th><th>Description</th><th>Additional information</th></tr></thead><tbody><tr class=\"oddRow\"><td>13-May-2020</td><td>2019-nCoV (novel coronavirus) vaccination</td><td>Problem; First, Manufacturer: jh, Expiry Date: 29-May-2020, Batch Number: 2, GMS: GMS, Injection site: Left arm, test</td></tr></tbody></table></div>"
            }
          },
          {
            "title": "Investigation Results",
            "code": {
              "coding": [
                {
                  "code": "ResultsHeader"
                }
              ]
            },
            "text": {
              "status": "generated",
              "div": "<div xmlns=\"http://www.w3.org/1999/xhtml\"><table id=\"Results\"><thead><tr><th>Date</th><th>Description</th><th>Additional information</th></tr></thead><tbody><tr class=\"oddRow\"><td>13-May-2020</td><td>Assessment using COVID-19 severity scale</td><td>Problem; First, test</td></tr></tbody></table></div>"
            },
            "entry": [
              {
                "reference": "Observation/F17999D2-FFE7-4CA4-8CE8-52CB45FF6F49"
              },
              {
                "reference": "Observation/EE608FAA-2433-4BAD-A0D5-4A10E45AB2B0"
              },
              {
                "reference": "Observation/0F582D97-8F89-11CA-8B2D-B741F13EFC47"
              }
            ]
          },
          {
            "title": "Care Events",
            "code": {
              "coding": [
                {
                  "code": "EventsHeader"
                }
              ]
            },
            "text": {
              "status": "generated",
              "div": "<div xmlns=\"http://www.w3.org/1999/xhtml\"><table id=\"Events\"><thead><tr><th>Date</th><th>Description</th><th>Additional information</th></tr></thead><tbody><tr class=\"oddRow\"><td>13-May-2020</td><td>Did not attend 2019-nCoV (novel coronavirus) vaccination</td><td>Problem; First, test</td></tr></tbody></table></div>"
            }
          },
          {
            "title": "Administrative Procedures",
            "code": {
              "coding": [
                {
                  "code": "ProceduresHeader"
                }
              ]
            },
            "text": {
              "status": "generated",
              "div": "<div xmlns=\"http://www.w3.org/1999/xhtml\"><table id=\"Procedures\"><thead><tr><th>Date</th><th>Description</th><th>Additional information</th></tr></thead><tbody><tr class=\"oddRow\"><td>14-May-2020</td><td>Household isolation note issued to patient</td><td>Test</td></tr></tbody></table></div>"
            }
          },
          {
            "title": "Provision of Advice and Information to Patients and Carers",
            "code": {
              "coding": [
                {
                  "code": "AdviceHeader"
                }
              ]
            },
            "text": {
              "status": "generated",
              "div": "<div xmlns=\"http://www.w3.org/1999/xhtml\"><table id=\"Advice\"><thead><tr><th>Date</th><th>Description</th><th>Additional information</th></tr></thead><tbody><tr class=\"oddRow\"><td>13-May-2020</td><td>Advice given about SARS-CoV-2 (severe acute respiratory syndrome coronavirus 2) by telephone</td><td>Problem; First, test</td></tr></tbody></table></div>"
            }
          },
          {
            "title": "Personal Preferences",
            "code": {
              "coding": [
                {
                  "code": "PreferencesHeader"
                }
              ]
            },
            "text": {
              "status": "generated",
              "div": "<div xmlns=\"http://www.w3.org/1999/xhtml\"><table id=\"Preferences\"><thead><tr><th>Date</th><th>Description</th><th>Additional information</th></tr></thead><tbody><tr class=\"oddRow\"><td>13-May-2020</td><td>2019-nCoV (novel coronavirus) vaccination declined</td><td>Problem; First, test</td></tr></tbody></table><p id=\"SendTime\">Summary Sent: 14-May-2020 14:31</p></div>"
            }
          }
        ]
      }
    },
    {
      "fullUrl": "https://api.service.nhs.uk/summary-care-record/FHIR/R4/PractitionerRole/D29F2286-A962-4034-B7D4-32CCB3610204",
      "resource": {
        "resourceType": "PractitionerRole",
        "id": "D29F2286-A962-4034-B7D4-32CCB3610204",
        "identifier": [
          {
            "system": "http://fhir.nhs.net/Id/sds-role-profile-id",
            "value": "673836492727"
          }
        ],
        "practitioner": {
          "reference": "Practitioner/EC705629-5B5D-4A5A-8692-2096C0B29D46"
        }
      }
    },
    {
      "fullUrl": "https://api.service.nhs.uk/summary-care-record/FHIR/R4/Practitioner/EC705629-5B5D-4A5A-8692-2096C0B29D46",
      "resource": {
        "resourceType": "Practitioner",
        "id": "EC705629-5B5D-4A5A-8692-2096C0B29D46",
        "identifier": [
          {
            "system": "https://fhir.nhs.uk/Id/sds-user-id",
            "value": "676789689789"
          }
        ],
        "name": [
          {
            "text": "Dr Steve Jones"
          }
        ]
      }
    },
    {
      "fullUrl": "https://api.service.nhs.uk/summary-care-record/FHIR/R4/Condition/FCB84E15-02E5-495C-B334-D0685DCB0687",
      "resource": {
        "resourceType": "Condition",
        "id": "FCB84E15-02E5-495C-B334-D0685DCB0687",
        "identifier": [
          {
            "value": "FCB84E15-02E5-495C-B334-D0685DCB0687"
          }
        ],
        "clinicalStatus": {
          "coding": [
            {
              "system": "http://hl7.org/fhir/ValueSet/condition-clinical",
              "code": "active"
            }
          ]
        },
        "category": [
          {
            "coding": [
              {
                "system": "http://snomed.info/sct",
                "code": "163001000000103",
                "display": "Diagnoses"
              }
            ]
          }
        ],
        "code": {
          "coding": [
            {
              "system": "http://snomed.info/sct",
              "code": "1240751000000100",
              "display": "COVID-19"
            }
          ]
        },
        "encounter": {
          "reference": "Encounter/C8219745-04B8-4181-9654-364BB3E64247"
        },
        "onsetDateTime": "2020-05-06T12:48:19+00:00"
      }
    },
    {
      "fullUrl": "https://api.service.nhs.uk/summary-care-record/FHIR/R4/PractitionerRole/B98F04AA-B24C-4736-A753-81641EDE2D05",
      "resource": {
        "resourceType": "PractitionerRole",
        "id": "B98F04AA-B24C-4736-A753-81641EDE2D05",
        "identifier": [
          {
            "system": "http://fhir.nhs.net/Id/sds-role-profile-id",
            "value": "673836492727"
          }
        ],
        "practitioner": {
          "reference": "Practitioner/443399A2-2C90-4B78-BD17-53424E3A52AB"
        }
      }
    },
    {
      "fullUrl": "https://api.service.nhs.uk/summary-care-record/FHIR/R4/Practitioner/443399A2-2C90-4B78-BD17-53424E3A52AB",
      "resource": {
        "resourceType": "Practitioner",
        "id": "443399A2-2C90-4B78-BD17-53424E3A52AB",
        "identifier": [
          {
            "system": "https://fhir.nhs.uk/Id/sds-user-id",
            "value": "676789689789"
          }
        ],
        "name": [
          {
            "text": "Dr Steve Jones"
          }
        ]
      }
    },
    {
      "fullUrl": "https://api.service.nhs.uk/summary-care-record/FHIR/R4/Encounter/C8219745-04B8-4181-9654-364BB3E64247",
      "resource": {
        "resourceType": "Encounter",
        "id": "C8219745-04B8-4181-9654-364BB3E64247",
        "status": "finished",
        "class": {
          "system": "http://terminology.hl7.org/CodeSystem/v3-NullFlavor",
          "code": "UNK",
          "display": "Unknown"
        },
        "participant": [
          {
            "type": [
              {
                "coding": [
                  {
                    "system": "http://terminology.hl7.org/CodeSystem/v3-ParticipationType",
                    "code": "AUT",
                    "display": "author"
                  }
                ]
              }
            ],
            "period": {
              "start": "2020-11-17T01:00:00+00:00"
            },
            "individual": {
              "reference": "PractitionerRole/B98F04AA-B24C-4736-A753-81641EDE2D05"
            }
          }
        ]
      }
    },
    {
      "fullUrl": "https://api.service.nhs.uk/summary-care-record/FHIR/R4/Condition/0F582D97-8F89-11EA-8B2D-B741F13EFC47",
      "resource": {
        "resourceType": "Condition",
        "id": "0F582D97-8F89-11EA-8B2D-B741F13EFC47",
        "identifier": [
          {
            "value": "0F582D97-8F89-11EA-8B2D-B741F13EFC47"
          }
        ],
        "clinicalStatus": {
          "coding": [
            {
              "system": "http://hl7.org/fhir/ValueSet/condition-clinical",
              "code": "active"
            }
          ]
        },
        "category": [
          {
            "coding": [
              {
                "system": "http://snomed.info/sct",
                "code": "163001000000103",
                "display": "Diagnoses"
              }
            ]
          }
        ],
        "code": {
          "coding": [
            {
              "system": "http://snomed.info/sct",
              "code": "1300721000000109",
              "display": "COVID-19 confirmed by laboratory test"
            }
          ]
        },
        "encounter": {
          "reference": "Encounter/EAA6B250-8998-4E60-BE82-6F9BA9929569"
        },
        "onsetDateTime": "2020-05-06T12:48:19+00:00",
        "evidence": [
          {
            "detail": [
              {
                "reference": "Observation/F17999D2-FFE7-4CA4-8CE8-52CB45FF6F49"
              }
            ]
          }
        ],
        "note": [
          {
            "text": "Problem; First, test"
          }
        ]
      }
    },
    {
      "fullUrl": "https://api.service.nhs.uk/summary-care-record/FHIR/R4/Practitioner/80BC96D3-4C5D-47A8-98D7-CD2D763C14E9",
      "resource": {
        "resourceType": "Practitioner",
        "id": "80BC96D3-4C5D-47A8-98D7-CD2D763C14E9",
        "name": [
          {
            "text": "BLOGGS Fred"
          }
        ]
      }
    },
    {
      "fullUrl": "https://api.service.nhs.uk/summary-care-record/FHIR/R4/PractitionerRole/E8450CE2-2C49-4A09-9C74-01B23D71AEC1",
      "resource": {
        "resourceType": "PractitionerRole",
        "id": "E8450CE2-2C49-4A09-9C74-01B23D71AEC1",
        "practitioner": {
          "reference": "Practitioner/80BC96D3-4C5D-47A8-98D7-CD2D763C14E9"
        },
        "organization": {
          "reference": "Organization/EC3EF53E-9272-495D-9FB3-BEF0CC92238A"
        },
        "code": [
          {
            "coding": [
              {
                "system": "https://fhir.nhs.uk/CodeSystem/HL7v3-SDSJobRoleName",
                "code": "R0050",
                "display": "Consultant"
              }
            ]
          }
        ]
      }
    },
    {
      "fullUrl": "https://api.service.nhs.uk/summary-care-record/FHIR/R4/Organization/EC3EF53E-9272-495D-9FB3-BEF0CC92238A",
      "resource": {
        "resourceType": "Organization",
        "id": "EC3EF53E-9272-495D-9FB3-BEF0CC92238A",
        "telecom": [
          {
            "system": "phone",
            "value": "0177865579"
          },
          {
            "system": "phone",
            "value": "0189834144"
          }
        ],
        "address": [
          {
            "text": "ORG ADDRESS"
          }
        ]
      }
    },
    {
      "fullUrl": "https://api.service.nhs.uk/summary-care-record/FHIR/R4/Encounter/EAA6B250-8998-4E60-BE82-6F9BA9929569",
      "resource": {
        "resourceType": "Encounter",
        "id": "EAA6B250-8998-4E60-BE82-6F9BA9929569",
        "status": "finished",
        "class": {
          "system": "http://terminology.hl7.org/CodeSystem/v3-NullFlavor",
          "code": "UNK",
          "display": "Unknown"
        },
        "participant": [
          {
            "type": [
              {
                "coding": [
                  {
                    "system": "http://terminology.hl7.org/CodeSystem/v3-ParticipationType",
                    "code": "AUT",
                    "display": "author"
                  }
                ]
              }
            ],
            "period": {
              "start": "2020-11-18T01:00:00+00:00"
            },
            "individual": {
              "reference": "PractitionerRole/E8450CE2-2C49-4A09-9C74-01B23D71AEC1"
            }
          }
        ]
      }
    },
    {
      "fullUrl": "https://api.service.nhs.uk/summary-care-record/FHIR/R4/Condition/958E584C-25B8-4BD7-A71D-7625FDC1ACD6",
      "resource": {
        "resourceType": "Condition",
        "id": "958E584C-25B8-4BD7-A71D-7625FDC1ACD6",
        "identifier": [
          {
            "value": "958E584C-25B8-4BD7-A71D-7625FDC1ACD6"
          }
        ],
        "clinicalStatus": {
          "coding": [
            {
              "system": "http://hl7.org/fhir/ValueSet/condition-clinical",
              "code": "active"
            }
          ]
        },
        "category": [
          {
            "coding": [
              {
                "system": "http://snomed.info/sct",
                "code": "163001000000103",
                "display": "Diagnoses"
              }
            ]
          }
        ],
        "code": {
          "coding": [
            {
              "system": "http://snomed.info/sct",
              "code": "1300731000000106",
              "display": "COVID-19 confirmed using clinical diagnostic criteria"
            }
          ]
        },
        "encounter": {
          "reference": "Encounter/92BFA50F-9304-4002-997F-29512E7449C9"
        },
        "onsetDateTime": "2020-05-06T12:48:19+00:00"
      }
    },
    {
      "fullUrl": "https://api.service.nhs.uk/summary-care-record/FHIR/R4/Practitioner/CA85E8B0-FE6A-4FB5-AA01-7D2615BC4C99",
      "resource": {
        "resourceType": "Practitioner",
        "id": "CA85E8B0-FE6A-4FB5-AA01-7D2615BC4C99",
        "name": [
          {
            "text": "William Jones"
          }
        ]
      }
    },
    {
      "fullUrl": "https://api.service.nhs.uk/summary-care-record/FHIR/R4/PractitionerRole/2ECCB5AA-B14A-4B38-BD95-2B5FA08BCF11",
      "resource": {
        "resourceType": "PractitionerRole",
        "id": "2ECCB5AA-B14A-4B38-BD95-2B5FA08BCF11",
        "practitioner": {
          "reference": "Practitioner/CA85E8B0-FE6A-4FB5-AA01-7D2615BC4C99"
        },
        "organization": {
          "reference": "Organization/FE4C3618-BBEC-421E-899B-D7175671DAA4"
        },
        "code": [
          {
            "coding": [
              {
                "system": "https://fhir.nhs.uk/CodeSystem/HL7v3-SDSJobRoleName",
                "code": "R0010",
                "display": "Medical Director"
              }
            ]
          }
        ]
      }
    },
    {
      "fullUrl": "https://api.service.nhs.uk/summary-care-record/FHIR/R4/Organization/FE4C3618-BBEC-421E-899B-D7175671DAA4",
      "resource": {
        "resourceType": "Organization",
        "id": "FE4C3618-BBEC-421E-899B-D7175671DAA4",
        "type": [
          {
            "coding": [
              {
                "code": "021"
              }
            ]
          }
        ],
        "name": "Good Health Hospital",
        "telecom": [
          {
            "system": "phone",
            "value": "0122865579"
          },
          {
            "system": "pager",
            "value": "0189664144"
          }
        ],
        "address": [
          {
            "text": "ORG ADDRESS_2"
          }
        ]
      }
    },
    {
      "fullUrl": "https://api.service.nhs.uk/summary-care-record/FHIR/R4/PractitionerRole/1A4D4C00-6F32-49C6-A743-8C49454205D7",
      "resource": {
        "resourceType": "PractitionerRole",
        "id": "1A4D4C00-6F32-49C6-A743-8C49454205D7",
        "identifier": [
          {
            "system": "http://fhir.nhs.net/Id/sds-role-profile-id",
            "value": "578934433"
          }
        ],
        "practitioner": {
          "reference": "Practitioner/85C61120-C263-403F-8400-9A287EDE3391"
        }
      }
    },
    {
      "fullUrl": "https://api.service.nhs.uk/summary-care-record/FHIR/R4/Practitioner/85C61120-C263-403F-8400-9A287EDE3391",
      "resource": {
        "resourceType": "Practitioner",
        "id": "85C61120-C263-403F-8400-9A287EDE3391",
        "identifier": [
          {
            "system": "https://fhir.nhs.uk/Id/sds-user-id",
            "value": "9054354543"
          }
        ],
        "name": [
          {
            "text": "Anna Maria"
          }
        ]
      }
    },
    {
      "fullUrl": "https://api.service.nhs.uk/summary-care-record/FHIR/R4/Encounter/92BFA50F-9304-4002-997F-29512E7449C9",
      "resource": {
        "resourceType": "Encounter",
        "id": "92BFA50F-9304-4002-997F-29512E7449C9",
        "status": "finished",
        "class": {
          "system": "http://terminology.hl7.org/CodeSystem/v3-NullFlavor",
          "code": "UNK",
          "display": "Unknown"
        },
        "participant": [
          {
            "type": [
              {
                "coding": [
                  {
                    "system": "http://terminology.hl7.org/CodeSystem/v3-ParticipationType",
                    "code": "AUT",
                    "display": "author"
                  }
                ]
              }
            ],
            "period": {
              "start": "2020-12-18T01:00:00+00:00"
            },
            "individual": {
              "reference": "PractitionerRole/2ECCB5AA-B14A-4B38-BD95-2B5FA08BCF11"
            }
          },
          {
            "type": [
              {
                "coding": [
                  {
                    "system": "http://terminology.hl7.org/CodeSystem/v3-ParticipationType",
                    "code": "INF",
                    "display": "informant"
                  }
                ]
              }
            ],
            "period": {
              "start": "2016-06-30T10:33:58+00:00"
            },
            "individual": {
              "reference": "PractitionerRole/1A4D4C00-6F32-49C6-A743-8C49454205D7"
            }
          }
        ]
      }
    },
    {
      "fullUrl": "https://api.service.nhs.uk/summary-care-record/FHIR/R4/Condition/8CEB2867-551B-43D0-88B5-3278DA20A6B0",
      "resource": {
        "resourceType": "Condition",
        "id": "8CEB2867-551B-43D0-88B5-3278DA20A6B0",
        "identifier": [
          {
            "value": "8CEB2867-551B-43D0-88B5-3278DA20A6B0"
          }
        ],
        "clinicalStatus": {
          "coding": [
            {
              "system": "http://hl7.org/fhir/ValueSet/condition-clinical",
              "code": "active"
            }
          ]
        },
        "category": [
          {
            "coding": [
              {
                "system": "http://snomed.info/sct",
                "code": "163001000000103",
                "display": "Diagnoses"
              }
            ]
          }
        ],
        "code": {
          "coding": [
            {
              "system": "http://snomed.info/sct",
              "code": "1240761000000102",
              "display": "Suspected COVID-19"
            }
          ]
        },
        "encounter": {
          "reference": "Encounter/B002BD59-3091-421C-A21E-02D96936466E"
        },
        "onsetDateTime": "2020-05-06T12:48:19+00:00"
      }
    },
    {
      "fullUrl": "https://api.service.nhs.uk/summary-care-record/FHIR/R4/Practitioner/B9092541-D7A4-46E2-8AB8-03A5321A6B4B",
      "resource": {
        "resourceType": "Practitioner",
        "id": "B9092541-D7A4-46E2-8AB8-03A5321A6B4B",
        "name": [
          {
            "text": "Stephan Spence"
          }
        ]
      }
    },
    {
      "fullUrl": "https://api.service.nhs.uk/summary-care-record/FHIR/R4/PractitionerRole/1A2AB8C9-D422-4755-8184-F19299EB413C",
      "resource": {
        "resourceType": "PractitionerRole",
        "id": "1A2AB8C9-D422-4755-8184-F19299EB413C",
        "practitioner": {
          "reference": "Practitioner/B9092541-D7A4-46E2-8AB8-03A5321A6B4B"
        },
        "organization": {
          "reference": "Organization/00BFAB52-B403-424F-8504-DC5A1BF73D5D"
        },
        "code": [
          {
            "coding": [
              {
                "system": "https://fhir.nhs.uk/CodeSystem/HL7v3-SDSJobRoleName",
                "code": "R0020",
                "display": "Clinical Director - Medical"
              }
            ]
          }
        ]
      }
    },
    {
      "fullUrl": "https://api.service.nhs.uk/summary-care-record/FHIR/R4/Organization/00BFAB52-B403-424F-8504-DC5A1BF73D5D",
      "resource": {
        "resourceType": "Organization",
        "id": "00BFAB52-B403-424F-8504-DC5A1BF73D5D",
        "identifier": [
          {
            "system": "https://fhir.nhs.uk/Id/ods-organization-code",
            "value": "57435939053"
          }
        ],
        "name": "Good Health Hospital 2",
        "telecom": [
          {
            "system": "phone",
            "value": "0122865579"
          },
          {
            "system": "pager",
            "value": "0189664144"
          }
        ],
        "address": [
          {
            "text": "ORG ADDRESS_2"
          }
        ]
      }
    },
    {
      "fullUrl": "https://api.service.nhs.uk/summary-care-record/FHIR/R4/RelatedPerson/9DDB3E34-7BDB-437C-85D2-0C275DAA5068",
      "resource": {
        "resourceType": "RelatedPerson",
        "id": "9DDB3E34-7BDB-437C-85D2-0C275DAA5068",
        "patient": {
          "reference": "Patient/01F9B243-02DC-42F4-8F51-2AF2A99DA377"
        },
        "relationship": [
          {
            "coding": [
              {
                "system": "https://fhir.nhs.uk/STU3/ValueSet/PersonRelationshipType-1",
                "code": "01",
                "display": "Brother"
              }
            ]
          }
        ],
        "name": [
          {
            "text": "JONES Bob"
          }
        ]
      }
    },
    {
      "fullUrl": "https://api.service.nhs.uk/summary-care-record/FHIR/R4/Encounter/B002BD59-3091-421C-A21E-02D96936466E",
      "resource": {
        "resourceType": "Encounter",
        "id": "B002BD59-3091-421C-A21E-02D96936466E",
        "status": "finished",
        "class": {
          "system": "http://terminology.hl7.org/CodeSystem/v3-NullFlavor",
          "code": "UNK",
          "display": "Unknown"
        },
        "participant": [
          {
            "type": [
              {
                "coding": [
                  {
                    "system": "http://terminology.hl7.org/CodeSystem/v3-ParticipationType",
                    "code": "AUT",
                    "display": "author"
                  }
                ]
              }
            ],
            "period": {
              "start": "2020-12-18T01:00:00+00:00"
            },
            "individual": {
              "reference": "PractitionerRole/1A2AB8C9-D422-4755-8184-F19299EB413C"
            }
          },
          {
            "type": [
              {
                "coding": [
                  {
                    "system": "http://terminology.hl7.org/CodeSystem/v3-ParticipationType",
                    "code": "INF",
                    "display": "informant"
                  }
                ]
              }
            ],
            "period": {
              "start": "2016-06-30T10:33:58+00:00"
            },
            "individual": {
              "reference": "RelatedPerson/9DDB3E34-7BDB-437C-85D2-0C275DAA5068"
            }
          }
        ]
      }
    },
    {
      "fullUrl": "https://api.service.nhs.uk/summary-care-record/FHIR/R4/Condition/6ECDAE6D-32AB-421C-AA8F-0B1ABA454C70",
      "resource": {
        "resourceType": "Condition",
        "id": "6ECDAE6D-32AB-421C-AA8F-0B1ABA454C70",
        "identifier": [
          {
            "value": "6ECDAE6D-32AB-421C-AA8F-0B1ABA454C70"
          }
        ],
        "clinicalStatus": {
          "coding": [
            {
              "system": "http://hl7.org/fhir/ValueSet/condition-clinical",
              "code": "active"
            }
          ]
        },
        "category": [
          {
            "coding": [
              {
                "system": "http://snomed.info/sct",
                "code": "163001000000103",
                "display": "Diagnoses"
              }
            ]
          }
        ],
        "code": {
          "coding": [
            {
              "system": "http://snomed.info/sct",
              "code": "1240761000000102",
              "display": "Suspected COVID-19"
            }
          ]
        },
        "encounter": {
          "reference": "Encounter/69593A02-6072-4E1D-AF21-B0455703ED74"
        },
        "onsetDateTime": "2020-05-06T12:48:19+00:00"
      }
    },
    {
      "fullUrl": "https://api.service.nhs.uk/summary-care-record/FHIR/R4/Practitioner/AF1FE510-7F26-4EB0-B387-9CCA1FEA5CA1",
      "resource": {
        "resourceType": "Practitioner",
        "id": "AF1FE510-7F26-4EB0-B387-9CCA1FEA5CA1",
        "identifier": [
          {
            "system": "https://fhir.nhs.uk/Id/sds-user-id",
            "value": "8563857943834"
          }
        ],
        "name": [
          {
            "text": "Gregory House"
          }
        ]
      }
    },
    {
      "fullUrl": "https://api.service.nhs.uk/summary-care-record/FHIR/R4/PractitionerRole/8CE425DE-D2C1-4D15-BF64-8D6E0F23BC2F",
      "resource": {
        "resourceType": "PractitionerRole",
        "id": "8CE425DE-D2C1-4D15-BF64-8D6E0F23BC2F",
        "practitioner": {
          "reference": "Practitioner/AF1FE510-7F26-4EB0-B387-9CCA1FEA5CA1"
        },
        "organization": {
          "reference": "Organization/68A1EDD1-7A46-4428-AF7A-1B41D4FDE695"
        },
        "code": [
          {
            "coding": [
              {
                "system": "https://fhir.nhs.uk/CodeSystem/HL7v3-SDSJobRoleName",
                "code": "R0080",
                "display": "Staff Grade"
              }
            ]
          }
        ]
      }
    },
    {
      "fullUrl": "https://api.service.nhs.uk/summary-care-record/FHIR/R4/Organization/68A1EDD1-7A46-4428-AF7A-1B41D4FDE695",
      "resource": {
        "resourceType": "Organization",
        "id": "68A1EDD1-7A46-4428-AF7A-1B41D4FDE695",
        "telecom": [
          {
            "system": "phone",
            "value": "0332865579"
          }
        ],
        "address": [
          {
            "text": "ORG ADDRESS_4"
          }
        ]
      }
    },
    {
      "fullUrl": "https://api.service.nhs.uk/summary-care-record/FHIR/R4/Practitioner/BD5016AA-674D-42FC-ABA2-346BFA928B1C",
      "resource": {
        "resourceType": "Practitioner",
        "id": "BD5016AA-674D-42FC-ABA2-346BFA928B1C",
        "identifier": [
          {
            "system": "https://fhir.nhs.uk/Id/sds-user-id",
            "value": "564735334"
          }
        ],
        "name": [
          {
            "text": "Thomas Moore"
          }
        ]
      }
    },
    {
      "fullUrl": "https://api.service.nhs.uk/summary-care-record/FHIR/R4/PractitionerRole/9F426548-5AE6-4290-9DD2-CBD516283F18",
      "resource": {
        "resourceType": "PractitionerRole",
        "id": "9F426548-5AE6-4290-9DD2-CBD516283F18",
        "practitioner": {
          "reference": "Practitioner/BD5016AA-674D-42FC-ABA2-346BFA928B1C"
        },
        "organization": {
          "reference": "Organization/EBECEBA8-6371-417B-8EC0-2478DCEA3886"
        },
        "code": [
          {
            "coding": [
              {
                "system": "https://fhir.nhs.uk/CodeSystem/HL7v3-SDSJobRoleName",
                "code": "R0100",
                "display": "Clinical Assistant"
              }
            ]
          }
        ]
      }
    },
    {
      "fullUrl": "https://api.service.nhs.uk/summary-care-record/FHIR/R4/Organization/EBECEBA8-6371-417B-8EC0-2478DCEA3886",
      "resource": {
        "resourceType": "Organization",
        "id": "EBECEBA8-6371-417B-8EC0-2478DCEA3886",
        "telecom": [
          {
            "system": "phone",
            "value": "573459834"
          }
        ],
        "address": [
          {
            "text": "ORG ADDRESS_4"
          }
        ]
      }
    },
    {
      "fullUrl": "https://api.service.nhs.uk/summary-care-record/FHIR/R4/Encounter/69593A02-6072-4E1D-AF21-B0455703ED74",
      "resource": {
        "resourceType": "Encounter",
        "id": "69593A02-6072-4E1D-AF21-B0455703ED74",
        "status": "finished",
        "class": {
          "system": "http://terminology.hl7.org/CodeSystem/v3-NullFlavor",
          "code": "UNK",
          "display": "Unknown"
        },
        "participant": [
          {
            "type": [
              {
                "coding": [
                  {
                    "system": "http://terminology.hl7.org/CodeSystem/v3-ParticipationType",
                    "code": "AUT",
                    "display": "author"
                  }
                ]
              }
            ],
            "period": {
              "start": "2020-12-18T01:00:00+00:00"
            },
            "individual": {
              "reference": "PractitionerRole/8CE425DE-D2C1-4D15-BF64-8D6E0F23BC2F"
            }
          },
          {
            "type": [
              {
                "coding": [
                  {
                    "system": "http://terminology.hl7.org/CodeSystem/v3-ParticipationType",
                    "code": "INF",
                    "display": "informant"
                  }
                ]
              }
            ],
            "period": {
              "start": "2016-06-30T10:33:58+00:00"
            },
            "individual": {
              "reference": "PractitionerRole/9F426548-5AE6-4290-9DD2-CBD516283F18"
            }
          }
        ]
      }
    },
    {
      "fullUrl": "https://api.service.nhs.uk/summary-care-record/FHIR/R4/PractitionerRole/DF33E1D2-D4AB-4435-9E79-0AEAC3017F22",
      "resource": {
        "resourceType": "PractitionerRole",
        "id": "DF33E1D2-D4AB-4435-9E79-0AEAC3017F22",
        "identifier": [
          {
            "system": "http://fhir.nhs.net/Id/sds-role-profile-id",
            "value": "89823498234"
          }
        ],
        "practitioner": {
          "reference": "Practitioner/5B037394-2555-4B9B-87B3-117955219590"
        }
      }
    },
    {
      "fullUrl": "https://api.service.nhs.uk/summary-care-record/FHIR/R4/Practitioner/5B037394-2555-4B9B-87B3-117955219590",
      "resource": {
        "resourceType": "Practitioner",
        "id": "5B037394-2555-4B9B-87B3-117955219590",
        "identifier": [
          {
            "system": "https://fhir.nhs.uk/Id/sds-user-id",
            "value": "9699575667"
          }
        ],
        "name": [
          {
            "text": "Maria Smith"
          }
        ]
      }
    },
    {
      "fullUrl": "https://api.service.nhs.uk/summary-care-record/FHIR/R4/Encounter/A171C6F3-45AB-4F8A-A458-5F0DF780D1B3",
      "resource": {
        "resourceType": "Encounter",
        "id": "A171C6F3-45AB-4F8A-A458-5F0DF780D1B3",
        "status": "finished",
        "class": {
          "system": "http://terminology.hl7.org/CodeSystem/v3-NullFlavor",
          "code": "UNK",
          "display": "Unknown"
        },
        "participant": [
          {
            "extension": [
              {
                "url": "https://fhir.nhs.uk/StructureDefinition/Extension-SCR-ModeCode",
                "valueCodeableConcept": {
                  "coding": [
                    {
                      "system": "http://terminology.hl7.org/CodeSystem/v3-ParticipationMode",
                      "code": "PHYSICAL",
                      "display": "physical presence"
                    }
                  ]
                }
              }
            ],
            "type": [
              {
                "coding": [
                  {
                    "system": "http://terminology.hl7.org/CodeSystem/v3-ParticipationType",
                    "code": "PRF",
                    "display": "performer"
                  }
                ]
              }
            ],
            "period": {
              "start": "2016-06-30T10:33:58+00:00"
            },
            "individual": {
              "reference": "PractitionerRole/DF33E1D2-D4AB-4435-9E79-0AEAC3017F22"
            }
          }
        ]
      }
    },
    {
      "fullUrl": "https://api.service.nhs.uk/summary-care-record/FHIR/R4/Observation/F17999D2-FFE7-4CA4-8CE8-52CB45FF6F49",
      "resource": {
        "resourceType": "Observation",
        "id": "F17999D2-FFE7-4CA4-8CE8-52CB45FF6F49",
        "meta": {
          "profile": [
            "https://fhir.hl7.org.uk/StructureDefinition/UKCore-Observation"
          ]
        },
        "identifier": [
          {
            "value": "F17999D2-FFE7-4CA4-8CE8-52CB45FF6F49"
          }
        ],
        "status": "final",
        "category": [
          {
            "coding": [
              {
                "system": "http://snomed.info/sct",
                "code": "163141000000104",
                "display": "Investigation Results"
              }
            ]
          }
        ],
        "code": {
          "coding": [
            {
              "system": "http://snomed.info/sct",
              "code": "1240581000000104",
              "display": "SARS-CoV-2 (severe acute respiratory syndrome coronavirus 2) RNA (ribonucleic acid) detection result positive"
            }
          ]
        },
        "encounter": {
          "reference": "Encounter/A171C6F3-45AB-4F8A-A458-5F0DF780D1B3"
        },
        "effectivePeriod": {
          "start": "2020-05-06T12:48:19+00:00"
        }
      }
    },
    {
      "fullUrl": "https://api.service.nhs.uk/summary-care-record/FHIR/R4/Device/03D1E382-8F3A-4792-BAC7-5F859B096EAD",
      "resource": {
        "resourceType": "Device",
        "id": "03D1E382-8F3A-4792-BAC7-5F859B096EAD",
        "identifier": [
          {
            "system": "https://fhir.nhs.uk/Id/SDSDevice",
            "value": "930484003023"
          },
          {
            "value": "AAA5F1E0-6DF2-11EA-AE26-C5CB3G0B33D1"
          }
        ],
        "owner": {
          "reference": "Organization/4E9F538F-0412-402C-BD06-50FE140845C0"
        }
      }
    },
    {
      "fullUrl": "https://api.service.nhs.uk/summary-care-record/FHIR/R4/Organization/4E9F538F-0412-402C-BD06-50FE140845C0",
      "resource": {
        "resourceType": "Organization",
        "id": "4E9F538F-0412-402C-BD06-50FE140845C0",
        "identifier": [
          {
            "system": "https://fhir.nhs.uk/Id/ods-organization-code",
            "value": "7635043534"
          }
        ]
      }
    },
    {
      "fullUrl": "https://api.service.nhs.uk/summary-care-record/FHIR/R4/PractitionerRole/28DBE1E2-102B-47AC-AA1D-6EAF5FBEB546",
      "resource": {
        "resourceType": "PractitionerRole",
        "id": "28DBE1E2-102B-47AC-AA1D-6EAF5FBEB546",
        "organization": {
          "reference": "Organization/4E9F538F-0412-402C-BD06-50FE140845C0"
        }
      }
    },
    {
      "fullUrl": "https://api.service.nhs.uk/summary-care-record/FHIR/R4/Encounter/CFBE18EF-CEBA-4735-AB4A-42456B1A1F2C",
      "resource": {
        "resourceType": "Encounter",
        "id": "CFBE18EF-CEBA-4735-AB4A-42456B1A1F2C",
        "status": "finished",
        "class": {
          "system": "http://terminology.hl7.org/CodeSystem/v3-NullFlavor",
          "code": "UNK",
          "display": "Unknown"
        },
        "participant": [
          {
            "type": [
              {
                "coding": [
                  {
                    "system": "http://terminology.hl7.org/CodeSystem/v3-ParticipationType",
                    "code": "AUT",
                    "display": "author"
                  }
                ]
              }
            ],
            "period": {
              "start": "2016-06-30T10:33:58+00:00"
            },
            "individual": {
              "reference": "PractitionerRole/28DBE1E2-102B-47AC-AA1D-6EAF5FBEB546"
            }
          }
        ]
      }
    },
    {
      "fullUrl": "https://api.service.nhs.uk/summary-care-record/FHIR/R4/Observation/EE608FAA-2433-4BAD-A0D5-4A10E45AB2B0",
      "resource": {
        "resourceType": "Observation",
        "id": "EE608FAA-2433-4BAD-A0D5-4A10E45AB2B0",
        "meta": {
          "profile": [
            "https://fhir.hl7.org.uk/StructureDefinition/UKCore-Observation"
          ]
        },
        "identifier": [
          {
            "value": "EE608FAA-2433-4BAD-A0D5-4A10E45AB2B0"
          }
        ],
        "status": "final",
        "category": [
          {
            "coding": [
              {
                "system": "http://snomed.info/sct",
                "code": "163141000000104",
                "display": "Investigation Results"
              }
            ]
          }
        ],
        "code": {
          "coding": [
            {
              "system": "http://snomed.info/sct",
              "code": "1240581000000104",
              "display": "SARS-CoV-2 (severe acute respiratory syndrome coronavirus 2) RNA (ribonucleic acid) detection result positive"
            }
          ]
        },
        "encounter": {
          "reference": "Encounter/CFBE18EF-CEBA-4735-AB4A-42456B1A1F2C"
        },
        "effectivePeriod": {
          "start": "2020-05-06T12:48:19+00:00"
        }
      }
    },
    {
      "fullUrl": "https://api.service.nhs.uk/summary-care-record/FHIR/R4/Device/C63078DF-7F40-445F-908D-8864C442AC91",
      "resource": {
        "resourceType": "Device",
        "id": "C63078DF-7F40-445F-908D-8864C442AC91",
        "identifier": [
          {
            "value": "7867868687687"
          },
          {
            "value": "AAA5F1E0-6DF2-11EA-AE26-C5CB3F0B33D1"
          }
        ],
        "deviceName": [
          {
            "name": "Some device name",
            "type": "other"
          },
          {
            "name": "Mfc model name",
            "type": "manufacturer-name"
          }
        ],
        "type": {
          "coding": [
            {
              "code": "01",
              "display": "Some device"
            }
          ]
        },
        "version": [
          {
            "value": "v.1.10.245-beta"
          }
        ],
        "owner": {
          "reference": "Organization/3E39F48F-D122-4946-B7E1-B2C36D89A027"
        },
        "note": [
          {
            "text": "Device description"
          }
        ]
      }
    },
    {
      "fullUrl": "https://api.service.nhs.uk/summary-care-record/FHIR/R4/Organization/3E39F48F-D122-4946-B7E1-B2C36D89A027",
      "resource": {
        "resourceType": "Organization",
        "id": "3E39F48F-D122-4946-B7E1-B2C36D89A027",
        "type": [
          {
            "coding": [
              {
                "code": "214"
              }
            ]
          }
        ],
        "name": "Device owner org",
        "telecom": [
          {
            "system": "phone",
            "value": "fax:01392251689"
          }
        ],
        "address": [
          {
            "text": "ADDRESS LINE 1"
          }
        ]
      }
    },
    {
      "fullUrl": "https://api.service.nhs.uk/summary-care-record/FHIR/R4/PractitionerRole/DC41C785-56D6-45C6-94A0-3C5824E22EBE",
      "resource": {
        "resourceType": "PractitionerRole",
        "id": "DC41C785-56D6-45C6-94A0-3C5824E22EBE",
        "organization": {
          "reference": "Organization/3E39F48F-D122-4946-B7E1-B2C36D89A027"
        }
      }
    },
    {
      "fullUrl": "https://api.service.nhs.uk/summary-care-record/FHIR/R4/Encounter/18D17C94-3BBE-4DD5-ADDB-C67BADD37A1D",
      "resource": {
        "resourceType": "Encounter",
        "id": "18D17C94-3BBE-4DD5-ADDB-C67BADD37A1D",
        "status": "finished",
        "class": {
          "system": "http://terminology.hl7.org/CodeSystem/v3-NullFlavor",
          "code": "UNK",
          "display": "Unknown"
        },
        "participant": [
          {
            "type": [
              {
                "coding": [
                  {
                    "system": "http://terminology.hl7.org/CodeSystem/v3-ParticipationType",
                    "code": "AUT",
                    "display": "author"
                  }
                ]
              }
            ],
            "period": {
              "start": "2016-06-30T10:33:58+00:00"
            },
            "individual": {
              "reference": "PractitionerRole/DC41C785-56D6-45C6-94A0-3C5824E22EBE"
            }
          }
        ]
      }
    },
    {
      "fullUrl": "https://api.service.nhs.uk/summary-care-record/FHIR/R4/Observation/0F582D97-8F89-11CA-8B2D-B741F13EFC47",
      "resource": {
        "resourceType": "Observation",
        "id": "0F582D97-8F89-11CA-8B2D-B741F13EFC47",
        "meta": {
          "profile": [
            "https://fhir.hl7.org.uk/StructureDefinition/UKCore-Observation"
          ]
        },
        "identifier": [
          {
            "value": "0F582D97-8F89-11CA-8B2D-B741F13EFC47"
          }
        ],
        "status": "final",
        "category": [
          {
            "coding": [
              {
                "system": "http://snomed.info/sct",
                "code": "163141000000104",
                "display": "Investigation Results"
              }
            ]
          }
        ],
        "code": {
          "coding": [
            {
              "system": "http://snomed.info/sct",
              "code": "1240581000000104",
              "display": "SARS-CoV-2 (severe acute respiratory syndrome coronavirus 2) RNA (ribonucleic acid) detection result positive"
            }
          ]
        },
        "encounter": {
          "reference": "Encounter/18D17C94-3BBE-4DD5-ADDB-C67BADD37A1D"
        },
        "effectivePeriod": {
          "start": "2020-05-06T12:48:19+00:00"
        }
      }
    },
    {
      "fullUrl": "https://api.service.nhs.uk/summary-care-record/FHIR/R4/Patient/01F9B243-02DC-42F4-8F51-2AF2A99DA377",
      "resource": {
        "resourceType": "Patient",
        "id": "01F9B243-02DC-42F4-8F51-2AF2A99DA377",
        "identifier": [
          {
            "system": "https://fhir.nhs.uk/Id/nhs-number",
            "value": "9995000180"
          }
        ]
      }
    }
  ]
}