{
   "resourceType":"Bundle",
   "entry":[
      {
         "fullUrl":"https://internal-dev.api.service.nhs.uk/summary-care-record/FHIR/R4/Observation/5EDDDF8C-775A-4437-8990-41012DB32BD0",
         "resource":{
            "resourceType":"Observation",
            "id":"5EDDDF8C-775A-4437-8990-41012DB32BD0",
            "meta":{
               "profile":[
                  "https://fhir.hl7.org.uk/StructureDefinition/UKCore-Observation"
               ]
            },
            "identifier":[
               {
                  "value":"5EDDDF8C-775A-4437-8990-41012DB32BD0"
               }
            ],
            "status":"final",
            "category":[
               {
                  "coding":[
                     {
                        "system":"http://snomed.info/sct",
                        "code":"163021000000107",
                        "display":"Lifestyle"
                     }
                  ]
               }
            ],
            "code":{
               "coding":[
                  {
                     "system":"http://snomed.info/sct",
                     "code":"102906002",
                     "display":"delinquent behaviour"
                  }
               ]
            },
            "encounter":{
               "reference":"Encounter/5F748C32-4BE8-44C5-8E50-F640B2F4743E"
            },
            "effectivePeriod":{
               "start":"1990-08-25T13:00+00:00"
            },
            "valueString":"My Value Text"
         }
      },
      {
         "fullUrl":"https://internal-dev.api.service.nhs.uk/summary-care-record/FHIR/R4/Practitioner/Practitioner/369CDBE4-D19D-4948-A975-576597F56CB9",
         "resource":{
            "resourceType":"Practitioner",
            "id":"369CDBE4-D19D-4948-A975-576597F56CB9",
            "identifier":[
               {
                  "system":"https://fhir.nhs.uk/Id/sds-user-id",
                  "value":"773251640040"
               }
            ],
            "name":[
               {
                  "text":"SMITH John"
               }
            ]
         }
      },
      {
         "fullUrl":"https://internal-dev.api.service.nhs.uk/summary-care-record/FHIR/R4/PractitionerRole/PractitionerRole/9641A4CF-D970-4513-8423-8ED039474E7A",
         "resource":{
            "resourceType":"PractitionerRole",
            "id":"9641A4CF-D970-4513-8423-8ED039474E7A",
            "identifier":[
               {
                  "system":"http://fhir.nhs.net/Id/sds-role-profile-id",
                  "value":"317403470147"
               }
            ],
            "practitioner":{
               "reference":"Practitioner/369CDBE4-D19D-4948-A975-576597F56CB9"
            }
         }
      },
      {
         "fullUrl":"https://internal-dev.api.service.nhs.uk/summary-care-record/FHIR/R4/RelatedPerson/RelatedPerson/B82DE087-1482-4ABC-A55B-F9B5D444E7A7",
         "resource":{
            "resourceType":"RelatedPerson",
            "id":"B82DE087-1482-4ABC-A55B-F9B5D444E7A7",
            "relationship":[
               {
                  "coding":[
                     {
                        "system":"https://fhir.nhs.uk/STU3/ValueSet/PersonRelationshipType-13",
                        "code":"13",
                        "display":"Father"
                     }
                  ]
               }
            ],
            "name":[
               {
                  "text":"SMITH John Paul Mr Snr"
               }
            ]
         }
      },
      {
         "fullUrl":"https://internal-dev.api.service.nhs.uk/summary-care-record/FHIR/R4/Encounter/5F748C32-4BE8-44C5-8E50-F640B2F4743E",
         "resource":{
            "resourceType":"Encounter",
            "id":"5F748C32-4BE8-44C5-8E50-F640B2F4743E",
            "status":"finished",
            "class":{
               "system":"http://terminology.hl7.org/CodeSystem/v3-NullFlavor",
               "code":"UNK",
               "display":"Unknown"
            },
            "participant":[
               {
                  "type":[
                     {
                        "coding":[
                           {
                              "system":"http://terminology.hl7.org/CodeSystem/v3-ParticipationType",
                              "code":"AUT",
                              "display":"author"
                           }
                        ]
                     }
                  ],
                  "period":{
                     "start":"2004-08-25T14:00+00:00"
                  },
                  "individual":{
                     "reference":"PractitionerRole/9641A4CF-D970-4513-8423-8ED039474E7A"
                  }
               },
               {
                  "type":[
                     {
                        "coding":[
                           {
                              "system":"http://terminology.hl7.org/CodeSystem/v3-ParticipationType",
                              "code":"INF",
                              "display":"informant"
                           }
                        ]
                     }
                  ],
                  "period":{
                     "start":"2004-08-25T14:00+00:00"
                  },
                  "individual":{
                     "reference":"RelatedPerson/B82DE087-1482-4ABC-A55B-F9B5D444E7A7"
                  }
               }
            ]
         }
      }
   ]
}
