{
  "resourceType": "Bundle",
  "id": "f61e545c-d52c-4b62-9668-3dcc6c27fc50",
  "identifier": {
    "system": "https://tools.ietf.org/html/rfc4122",
    "value": "003D8B36-12D9-11EB-9062-005056276454"
  },
  "type": "document",
  "timestamp": "2020-11-17T01:00:00Z",
  "entry":  [
    {
      "fullUrl": "urn:uuid:2880eedf-76f0-4f38-9681-dc158e937da7",
      "resource": {
        "resourceType": "Composition",
        "id": "2880eedf-76f0-4f38-9681-dc158e937da7",
        "identifier": {
          "system": "https://tools.ietf.org/html/rfc4122",
          "value": "003D8B36-12D9-11EB-9062-005056276454"
        },
        "status": "final",
        "type": {
          "coding":  [
            {
              "system": "http://snomed.info/sct",
              "code": "196981000000101",
              "display": "General Practice Summary"
            }
          ]
        },
        "date": "2020-11-17T01:00:00Z",
        "subject": {
          "reference": "urn:uuid:b6f5dd89-fc3a-466d-baad-126c0aac46fc"
        },
        "author":  [
          {
            "reference": "urn:uuid:83c26c8f-ee72-4534-8891-0136972b2106",
            "display": "Dr Steve Jones"
          }
        ],
        "title": "General Practice Summary",
        "relatesTo": [
          {
            "code": "replaces",
            "targetIdentifier": {
              "value": "D18B57ED-992E-45A2-A6AF-55200D20F48E"
            }
          }
        ],
        "section":  [
          {
            "title": "Diagnoses",
            "text": {
              "status": "generated",
              "div": "<div xmlns=\"http://www.w3.org/1999/xhtml\"><table><thead><tr><th>Date</th><th>Medication Item</th><th>Dosage instructions</th><th>Quantity or duration</th><th>Reason for medication</th><th>Supporting information</th></tr></thead><tbody><tr><td>Start 03-Jan-92 End 02-Feb-06</td><td>Bendrofluazide 2.5mg tablets</td><td>One daliy</td><td /><td>hypokalaemia</td><td /></tr></tbody></table></div>"
            }
          },
          {
            "title": "Diagnoses",
            "text": {
              "status": "generated",
              "div": "<div xmlns=\"http://www.w3.org/1999/xhtml\"><table><thead><tr><th>Date</th><th>Medication Item</th><th>Dosage instructions</th><th>Quantity or duration</th><th>Reason for medication</th><th>Supporting information</th></tr></thead><tbody><tr><td>Start 03-Jan-92 End 02-Feb-06</td><td>Bendrofluazide 2.5mg tablets</td><td>One daliy</td><td /><td>hypokalaemia</td><td /></tr></tbody></table></div>"
            }
          },
          {
            "title": "Diagnoses",
            "text": {
              "status": "generated",
              "div": "<div xmlns=\"http://www.w3.org/1999/xhtml\"><table><thead><tr><th>Date</th><th>Medication Item</th><th>Dosage instructions</th><th>Quantity or duration</th><th>Reason for medication</th><th>Supporting information</th></tr></thead><tbody><tr><td>Start 03-Jan-92 End 02-Feb-06</td><td>Bendrofluazide 2.5mg tablets</td><td>One daliy</td><td /><td>hypokalaemia</td><td /></tr></tbody></table></div>"
            }
          },
          {
            "title": "Diagnoses",
            "text": {
              "status": "generated",
              "div": "<div xmlns=\"http://www.w3.org/1999/xhtml\"><table><thead><tr><th>Date</th><th>Medication Item</th><th>Dosage instructions</th><th>Quantity or duration</th><th>Reason for medication</th><th>Supporting information</th></tr></thead><tbody><tr><td>Start 03-Jan-92 End 02-Feb-06</td><td>Bendrofluazide 2.5mg tablets</td><td>One daliy</td><td /><td>hypokalaemia</td><td /></tr></tbody></table></div>"
            }
          },
          {
            "title": "Clinical observations and findings",
            "text": {
              "status": "generated",
              "div": "<div xmlns=\"http://www.w3.org/1999/xhtml\"><table><thead><tr><th>Date</th><th>Medication Item</th><th>Dosage instructions</th><th>Quantity or duration</th><th>Reason for medication</th><th>Supporting information</th></tr></thead><tbody><tr><td>Start 03-Jan-92 End 02-Feb-06</td><td>Bendrofluazide 2.5mg tablets</td><td>One daliy</td><td /><td>hypokalaemia</td><td /></tr></tbody></table></div>"
            }
          },
          {
            "title": "Investigation results",
            "text": {
              "status": "generated",
              "div": "<div xmlns=\"http://www.w3.org/1999/xhtml\"><table><thead><tr><th>Date</th><th>Medication Item</th><th>Dosage instructions</th><th>Quantity or duration</th><th>Reason for medication</th><th>Supporting information</th></tr></thead><tbody><tr><td>Start 03-Jan-92 End 02-Feb-06</td><td>Bendrofluazide 2.5mg tablets</td><td>One daliy</td><td /><td>hypokalaemia</td><td /></tr></tbody></table></div>"
            }
          },
          {
            "title": "General Practice Summary",
            "text": {
              "status": "generated",
              "div": "<div xmlns=\"http://www.w3.org/1999/xhtml\"><h3>Sourced from the patient's General Practice record. This information has not been verified by the practice prior to sending. This summary \n may not include all the information pertinent to this patient NB the patient may have opted to leave out items from this summary</h3><h3>Time of summary creation 16.00 15-Mar-2007</h3><h3>Author Dr Steve Jones, The Bridge Street Practice, Bridge Street, Bridge Town, Bridgeshire, \n BT1 1BT, England, +4401234567890</h3><h3>Date of sending this summary 15-Mar-2007</h3></div>"
            }
          },
          {
            "title": "Allergies and Adverse Reactions",
            "text": {
              "status": "generated",
              "div": "<div xmlns=\"http://www.w3.org/1999/xhtml\"><table><thead><tr><th>Date</th><th>Description</th><th>Supporting information</th></tr></thead><tbody><tr><td>13-Jan-07</td><td>Refused consent for upload to national shared electronic record</td></tr><tr><td>14-Nov-06</td><td>Allergy to Drug - Penicillin, (probably present) . </td><td>Patient stated that they told that they were were allergic to penicillin by their parents </td></tr></tbody></table></div>"
            }
          },
          {
            "title": "Repeat Medication",
            "text": {
              "status": "generated",
              "div": "<div xmlns=\"http://www.w3.org/1999/xhtml\"><table><thead><tr><th>Date first prescribed</th><th>Medication Item</th><th>Dosage instructions</th><th>Quantity or duration</th><th>Reason for medication</th><th>Supporting information</th></tr></thead><tbody><tr><td>02-Mar-06</td><td>1% Hydrocortisone cream</td><td>use on affected areas twice a day</td><td /><td /><td>Used for eczema on forearms</td></tr><tr><td>12-Jan-05</td><td>atenolol 50mg tablets</td><td>take one daily</td><td /><td>Ischaemic Heart disease</td><td /></tr><tr><td>30-Apr-04</td><td>lisinopril 10mg</td><td>take one daily</td><td /><td>Ischaemic Heart disease</td><td /></tr></tbody></table></div>"
            }
          },
          {
            "title": "Acute Medication",
            "text": {
              "status": "generated",
              "div": "<div xmlns=\"http://www.w3.org/1999/xhtml\"><table><thead><tr><th>Date prescribed</th><th>Medication Item</th><th>Dosage instructions</th><th>Quantity or duration</th><th>Reason for medication</th><th>Supporting information</th></tr></thead><tbody><tr><td>13-Jan-07</td><td>Refused consent for upload to national shared electronic record</td><td /><td /><td /><td /></tr><tr><td>12-Nov-06</td><td>Amoxycillin 500mg tablets</td><td>one four times daily</td><td>7 days</td><td /><td>Chest infection - green sputum for 3 days</td></tr><tr><td>16-Nov-06</td><td>erythromycin 500mg tablets</td><td>one four times daily</td><td>7 days</td><td>Allergy to Penicillin</td><td /></tr><tr><td>01-Dec-06</td><td>Paracetamol 500mg tablets</td><td>one or two tablet four times daily as required</td><td>100 tablets</td><td>Right Knee pain</td><td /></tr><tr><td>01-Dec-06</td><td>Codeine 30mg tablets</td><td>one or two tablet four times daily as required</td><td>100 tablets</td><td>Right Knee pain</td><td /></tr></tbody></table></div>"
            }
          },
          {
            "title": "Discontinued Repeat Medication",
            "text": {
              "status": "generated",
              "div": "<div xmlns=\"http://www.w3.org/1999/xhtml\"><table><thead><tr><th>Date</th><th>Medication Item</th><th>Dosage instructions</th><th>Quantity or duration</th><th>Reason for medication</th><th>Supporting information</th></tr></thead><tbody><tr><td>Start 03-Jan-92 End 02-Feb-06</td><td>Bendrofluazide 2.5mg tablets</td><td>One daliy</td><td /><td>hypokalaemia</td><td /></tr></tbody></table></div>"
            }
          },
          {
            "title": "Risks to Care professional or Third Party",
            "text": {
              "status": "generated",
              "div": "<div xmlns=\"http://www.w3.org/1999/xhtml\"><table><thead><tr><th>Date</th><th>Description</th><th>Supporting information</th></tr></thead><tbody><tr><td>14-Feb-05</td><td>Hepatitis B</td><td>Hepatitis B surface antigen positive on last test 3 months ago</td></tr></tbody></table></div>"
            }
          },
          {
            "title": "Diagnoses",
            "text": {
              "status": "generated",
              "div": "<div xmlns=\"http://www.w3.org/1999/xhtml\"><table><thead><tr><th>Date</th><th>Description</th><th>Supporting information</th></tr></thead><tbody><tr><td>12-Jan-06</td><td>Myocardial Infarction</td><td /></tr><tr><td>12-Jan-06</td><td>Ischaemic heart disease</td><td>No symptomatic problems - on preventative measures only.</td></tr><tr><td>14-Feb-05</td><td>Hepatitis B</td><td>Hepatitis B surface antigen positive on last test 3 months ago.</td></tr><tr><td>30-Apr-04</td><td>Osteoarthritis</td><td>Starting to affect both hips and both knees.</td></tr><tr><td>17-Dec-99</td><td>Lobar Pneumonia</td><td>Left lower lobe - treated in hospital with antibiotics</td></tr></tbody></table></div>"
            }
          },
          {
            "title": "Problems and issues",
            "text": {
              "status": "generated",
              "div": "<div xmlns=\"http://www.w3.org/1999/xhtml\"><table><thead><tr><th>Date</th><th>Description</th><th>Supporting information</th></tr></thead><tbody><tr><td>12-Jan-06</td><td>Ischaemic heart disease</td><td>No symptomatic problems - on preventative measures only.</td></tr><tr><td>20-Feb-03</td><td>Knee pain - right</td><td /></tr></tbody></table></div>"
            }
          },
          {
            "title": "Clinical Observation and Findings",
            "text": {
              "status": "generated",
              "div": "<div xmlns=\"http://www.w3.org/1999/xhtml\"><table><thead><tr><th>Date</th><th>Description</th><th>Supporting information</th></tr></thead><tbody><tr><td>12-Jan-06</td><td>body weight - value = 95Kg</td><td /></tr><tr><td>10-Feb-03</td><td>Knee pain - right</td><td /></tr></tbody></table></div>"
            }
          },
          {
            "title": "Treatments",
            "text": {
              "status": "generated",
              "div": "<div xmlns=\"http://www.w3.org/1999/xhtml\"><table><thead><tr><th>Date</th><th>Description</th><th>Supporting information</th></tr></thead><tbody><tr><td>22-Feb-06</td><td>Knee replacement - right</td><td /></tr></tbody></table></div>"
            }
          },
          {
            "title": "Investigations",
            "text": {
              "status": "generated",
              "div": "<div xmlns=\"http://www.w3.org/1999/xhtml\"><table><thead><tr><th>Date</th><th>Description</th><th>Supporting information</th></tr></thead><tbody><tr><td>10-Mar-07</td><td>Magnetic resonance imaging - planned</td><td>to look into ongoing pain in the right knee.</td></tr></tbody></table></div>"
            }
          },
          {
            "title": "Provision of Advice and Information to Patients and Carers",
            "text": {
              "status": "generated",
              "div": "<div xmlns=\"http://www.w3.org/1999/xhtml\"><table><thead><tr><th>Date</th><th>Description</th><th>Supporting information</th></tr></thead><tbody><tr><td>12-Mar-07</td><td>Advice about exercise</td><td>Advised to only perform light exercise.</td></tr></tbody></table></div>"
            }
          },
          {
            "title": "Personal Preferences",
            "text": {
              "status": "generated",
              "div": "<div xmlns=\"http://www.w3.org/1999/xhtml\"><table><thead><tr><th>Date</th><th>Description</th><th>Supporting information</th></tr></thead><tbody><tr><td>15-Jan-06</td><td>Preference for male healthcare professional</td><td /></tr></tbody></table></div>"
            }
          },
          {
            "title": "Social and Personal Circumstances",
            "text": {
              "status": "generated",
              "div": "<div xmlns=\"http://www.w3.org/1999/xhtml\"><table><thead><tr><th>Date</th><th>Description</th><th>Supporting information</th></tr></thead><tbody><tr><td>01-Jan-76</td><td>Director of photography (motion picture)</td><td /></tr></tbody></table></div>"
            }
          },
          {
            "title": "Services, Care Professionals and Carers",
            "text": {
              "status": "generated",
              "div": "<div xmlns=\"http://www.w3.org/1999/xhtml\"><table><thead><tr><th>Date</th><th>Description</th><th>Supporting information</th><th>Person or Organisation</th></tr></thead><tbody><tr><td>12-Jan-07</td><td>District nurse attends</td><td /><td>Petra Caull Role id 139852035803 person id 591650593093</td></tr></tbody></table></div>"
            }
          },
          {
            "title": "Lifestyle",
            "text": {
              "status": "generated",
              "div": "<div xmlns=\"http://www.w3.org/1999/xhtml\"><table><thead><tr><th>Date</th><th>Description</th><th>Supporting information</th></tr></thead><tbody><tr><td>12-Jan-06</td><td>Non smoker</td><td /></tr></tbody></table></div>"
            }
          },
          {
            "title": "Family History",
            "text": {
              "status": "generated",
              "div": "<div xmlns=\"http://www.w3.org/1999/xhtml\"><table><thead><tr><th>Date</th><th>Description</th><th>Supporting information</th></tr></thead><tbody><tr><td>12-Jun-91</td><td>Family history of Ischeamic heart disease</td><td>Father died of heart attack at age 55</td></tr></tbody></table></div>"
            }
          }
        ]
      }
    },
    {
      "fullUrl": "urn:uuid:83c26c8f-ee72-4534-8891-0136972b2106",
      "resource": {
        "resourceType": "PractitionerRole",
        "id": "83c26c8f-ee72-4534-8891-0136972b2106",
        "identifier":  [
          {
            "system": "http://fhir.nhs.net/Id/sds-role-profile-id",
            "value": "673836492727"
          }
        ],
        "practitioner": {
          "reference": "urn:uuid:b1a41ee5-b88b-4f66-bd83-24343bf63dd8"
        },
        "code": [
          {
            "coding": [
              {
                "code": "R0070",
                "display": "Associate Specialist",
                "system": "https://fhir.nhs.uk/CodeSystem/HL7v3-SDSJobRoleName"
              }
            ]
          }
        ]
      }
    },
    {
      "fullUrl": "urn:uuid:a82b49f8-2780-47cc-aa4b-62f79aa4ade9",
      "resource": {
        "resourceType": "Organization",
        "id": "a82b49f8-2780-47cc-aa4b-62f79aa4ade9",
        "identifier":  [
          {
            "use": "official",
            "system": "https://fhir.nhs.uk/Id/ods-organization-code",
            "value": "RR8"
          }
        ],
        "type": [
          {
            "coding": [
              {
                "code": "1",
                "system": "1",
                "display": "1"
              }
            ]
          }
        ],
        "name": "LEEDS TEACHING HOSPITAL TRUST",
        "telecom": [
          {
            "system": "phone",
            "value": "0113 243 3144"
          }
        ],
        "address": [
          {
            "line": [
              "ST. JAMES'S UNIVERSITY HOSPITAL",
              "BECKETT STREET"
            ],
            "city": "LEEDS",
            "district": "CITY OF LEEDS",
            "postalCode": "LS9 7TF",
            "country": "ENGLAND"
          }
        ]
      }
    },
    {
      "fullUrl": "urn:uuid:b1a41ee5-b88b-4f66-bd83-24343bf63dd8",
      "resource": {
        "resourceType": "Practitioner",
        "id": "b1a41ee5-b88b-4f66-bd83-24343bf63dd8",
        "identifier": [
          {
            "system": "https://fhir.nhs.uk/Id/sds-user-id",
            "value": "676789689789"
          }
        ],
        "name":  [
          {
            "family": "Jones",
            "given":  [
              "Steve"
            ],
            "prefix":  [
              "Dr"
            ]
          }
        ]
      }
    },
    {
      "fullUrl": "urn:uuid:b6f5dd89-fc3a-466d-baad-126c0aac46fc",
      "resource": {
        "resourceType": "Patient",
        "id": "b6f5dd89-fc3a-466d-baad-126c0aac46fc",
        "identifier":  [
          {
            "extension":  [
              {
                "url": "https://fhir.hl7.org.uk/STU3/StructureDefinition/Extension-CareConnect-NHSNumberVerificationStatus-1",
                "valueCodeableConcept": {
                  "coding":  [
                    {
                      "system": "https://fhir.hl7.org.uk/STU3/CodeSystem/CareConnect-NHSNumberVerificationStatus-1",
                      "code": "01",
                      "display": "Number present and verified"
                    }
                  ]
                }
              }
            ],
            "system": "https://fhir.nhs.uk/Id/nhs-number",
            "value": "9995000180"
          }
        ]
      }
    },
    {
      "fullUrl": "baecc1c2-c86c-482c-8cea-981b47a6cc48",
      "resource": {
        "resourceType": "Condition",
        "meta": [
          {
            "profile": "https://fhir.hl7.org.uk/StructureDefinition/UKCore-Condition"
          }
        ],
        "identifier": [
          {
            "value": "0F582D97-8F89-11EA-8B2D-B741F13EFC47"
          }
        ],
        "clinicalStatus": [
          {
            "coding": [
              {
                "system": "http://terminology.hl7.org/CodeSystem/condition-clinical",
                "code": "active",
                "display": "Active"
              }
            ]
          }
        ],
        "code": [
          {
            "coding": [
              {
                "system": "http://snomed.info/sct",
                "code": "1240751000000100",
                "display": "COVID-19"
              }
            ]
          }
        ],
        "onsetDateTime": "2020-05-06T10:48:19+00:00"
      }
    },
    {
      "fullUrl": "baecc1c2-c86c-482c-8cea-981b47a6cc48",
      "resource": {
        "resourceType": "Condition",
        "meta": [
          {
            "profile": "https://fhir.hl7.org.uk/StructureDefinition/UKCore-Condition"
          }
        ],
        "identifier": [
          {
            "value": "0F582D97-8F89-11EA-8B2D-B741F13EFC47"
          }
        ],
        "clinicalStatus": [
          {
            "coding": [
              {
                "system": "http://terminology.hl7.org/CodeSystem/condition-clinical",
                "code": "active",
                "display": "Active"
              }
            ]
          }
        ],
        "code": [
          {
            "coding": [
              {
                "system": "http://snomed.info/sct",
                "code": "1300721000000109",
                "display": "COVID-19 confirmed by laboratory test"
              }
            ]
          }
        ],
        "onsetDateTime": "2020-05-06T10:48:19+00:00"
      }
    },
    {
      "fullUrl": "baecc1c2-c86c-482c-8cea-981b47a6cc48",
      "resource": {
        "resourceType": "Condition",
        "meta": [
          {
            "profile": "https://fhir.hl7.org.uk/StructureDefinition/UKCore-Condition"
          }
        ],
        "identifier": [
          {
            "value": "0F582D97-8F89-11EA-8B2D-B741F13EFC47"
          }
        ],
        "clinicalStatus": [
          {
            "coding": [
              {
                "system": "http://terminology.hl7.org/CodeSystem/condition-clinical",
                "code": "active",
                "display": "Active"
              }
            ]
          }
        ],
        "code": [
          {
            "coding": [
              {
                "system": "http://snomed.info/sct",
                "code": "1300731000000106",
                "display": "COVID-19 confirmed using clinical diagnostic criteria"
              }
            ]
          }
        ],
        "onsetDateTime": "2020-05-06T10:48:19+00:00"
      }
    },
    {
      "fullUrl": "baecc1c2-c86c-482c-8cea-981b47a6cc48",
      "resource": {
        "resourceType": "Condition",
        "meta": [
          {
            "profile": "https://fhir.hl7.org.uk/StructureDefinition/UKCore-Condition"
          }
        ],
        "identifier": [
          {
            "value": "0F582D97-8F89-11EA-8B2D-B741F13EFC47"
          }
        ],
        "clinicalStatus": [
          {
            "coding": [
              {
                "system": "http://terminology.hl7.org/CodeSystem/condition-clinical",
                "code": "active",
                "display": "Active"
              }
            ]
          }
        ],
        "code": [
          {
            "coding": [
              {
                "system": "http://snomed.info/sct",
                "code": "1240761000000102",
                "display": "Suspected COVID-19"
              }
            ]
          }
        ],
        "onsetDateTime": "2020-05-06T10:48:19+00:00"
      }
    },
    {
      "fullUrl": "baecc1c2-c86c-482c-8cea-981b47a6cc48",
      "resource": {
        "resourceType": "Observation",
        "meta": [
          {
            "profile": "https://fhir.hl7.org.uk/StructureDefinition/UKCore-Observation"
          }
        ],
        "identifier": [
          {
            "value": "0F582D97-8F89-11EA-8B2D-B741F13EFC47"
          }
        ],
        "status": "final",
        "code": [
          {
            "coding": [
              {
                "system": "http://snomed.info/sct",
                "code": "163131000000108",
                "display": "SARS-CoV-2 (severe acute respiratory syndrome coronavirus 2) RNA (ribonucleic acid) detection result positive"
              }
            ]
          }
        ],
        "effectivePeriod": [
          {
            "start": "2020-05-06T10:48:19+00:00"
          }
        ]
      }
    },
    {
      "fullUrl": "baecc1c2-c86c-482c-8cea-981b47a6cc48",
      "resource": {
        "resourceType": "Observation",
        "meta": [
          {
            "profile": "https://fhir.hl7.org.uk/StructureDefinition/UKCore-Observation"
          }
        ],
        "identifier": [
          {
            "value": "0F582D97-8F89-11EA-8B2D-B741F13EFC47"
          }
        ],
        "status": "final",
        "code": [
          {
            "coding": [
              {
                "system": "http://snomed.info/sct",
                "code": "1240581000000104",
                "display": "SARS-CoV-2 (severe acute respiratory syndrome coronavirus 2) RNA (ribonucleic acid) detection result positive"
              }
            ]
          }
        ],
        "effectivePeriod": [
          {
            "start": "2020-05-06T10:48:19+00:00"
          }
        ]
      }
    }
  ]
}
