{
    "resourceType": "Bundle",
    "id": "FE419026-8136-4F87-A1A8-5384148B8324",
    "identifier": {
        "system": "https://tools.ietf.org/html/rfc4122",
        "value": "6A0B9563-A96C-4102-8DD6-28929287D96F"
    },
    "type": "document",
    "timestamp": "2023-01-24T14:00:42+00:00",
    "entry": [
        {
            "fullUrl": "https://int.api.service.nhs.uk/summary-care-record/FHIR/R4/Composition/E301DB4A-4F71-4D83-AAEC-A6B5DE141231",
            "resource": {
                "resourceType": "Composition",
                "id": "E301DB4A-4F71-4D83-AAEC-A6B5DE141231",
                "meta": {
                    "lastUpdated": "2017-10-09T15:25+00:00"
                },
                "identifier": {
                    "system": "https://tools.ietf.org/html/rfc4122",
                    "value": "E301DB4A-4F71-4D83-AAEC-A6B5DE141231"
                },
                "status": "final",
                "type": {
                    "coding": [
                        {
                            "system": "http://snomed.info/sct",
                            "code": "196981000000101",
                            "display": "General Practice Summary"
                        }
                    ]
                },
                "category": [
                    {
                        "coding": [
                            {
                                "system": "http://snomed.info/sct",
                                "code": "163171000000105",
                                "display": "Care Professional Documentation"
                            }
                        ]
                    }
                ],
                "subject": {
                    "reference": "Patient/D8AF92F0-BBCE-422E-83F2-6AFD771FF8D9"
                },
                "date": "2017-10-09T15:25:42+00:00",
                "author": [
                    {
                        "reference": "PractitionerRole/44DF3657-3983-43CC-8358-2307FA12ABB5"
                    }
                ],
                "section": [
                    {
                        "title": "General Practice Summary",
                        "code": {
                            "coding": [
                                {
                                    "code": "Title"
                                }
                            ]
                        },
                        "text": {
                            "status": "generated",
                            "div": "<div xmlns=\"http://www.w3.org/1999/xhtml\"><h3 id=\"Disclaimer\">Sourced from the patient's General Practice record. This summary may not include all the information pertinent to this patient.</h3><p id=\"CreateTime\">Summary created: 09 Oct 2017 15:25</p><p id=\"WithhedItemsStatment\" class=\"HighlightedStatement\">One or more allergies, adverse reactions, or medications have been deliberately withheld from this GP Summary.</p><p id=\"Author\">Created by: RADFORD, Michelle (Mrs)</p><p id=\"Practice\">DR DK NANDI'S PRACTICE, 342 Troy Road, Horsforth, Leeds LS18 5TN</p></div>"
                        }
                    },
                    {
                        "title": "Allergies and Adverse Reactions",
                        "code": {
                            "coding": [
                                {
                                    "code": "AllergiesHeader"
                                }
                            ]
                        },
                        "text": {
                            "status": "generated",
                            "div": "<div xmlns=\"http://www.w3.org/1999/xhtml\"><table summary=\"This table includes information about this patient's allergies and adverse reactions\" id=\"Allergies\"><thead><tr><th>Date</th><th>Description</th><th>Certainty</th><th>Severity</th><th>Supporting Information</th></tr></thead><tbody><tr class=\"oddRow\"><td>10 Feb 2016</td><td>H/O: serum allergy</td><td/><td/><td>Long text long text long text Long text long text long text Long text long text long text Long text long text long text Long text long text long text Long text long text long text Long text long text long text Long text long text long text Long text long text long text Long text long text long text Long text long text long text Long text long text long text Long text long text long text Long text long text long text Long text long text long text Long text long text long text Long text long text long text Long text long text long text Long text long text long text Long text long text long text Long text long text long text Long text long text long text Long text long text long text Long text long text long text Long text long text long text Long text long text long text Long text long text long text Long text long text long text Long text long text long text Long text long text long text Long text long text long text Long text long text long text Long text long text long text Long text long text long text Long text long text long text Long text long text long text Long text long text long text Long text long text long text Long text long text long text Long text long text long text Long text long text long text Long text long text long text Long text long text long text Long text long text long text Long text long text long text Long text long text long text Long text long text long text Long text long text long text Long text long text long text Long text long text long text Long text long text long text Long text long text long text Long text long text long text Long text long text long text Long text long text long text Long text long text long text Long text long text long text Long text long text long text Long text long text long text Long text long text long text Long text long text long text Long text long text long text Long text long text long text Long text long text long text Long text long text long text Long text long text long text Long text long text long text Long text long text long text Long text long text long text Long text long text long text Long text long text long text Long text long text long text Long text long text long text Long text long text long text Long text long text long text Long text long text long text Long text long text long text Long text long text long text Long text long text long text Long text long text long text Long text long text long text Long text long text long text Long text long text long text Long text long text long text Long text long text long text Long text long text long text Long text long text long text Long text long text long text Long text long text long text Long text long text long text Long text long text long text Long text long text long text Long text long text long text Long text long text long text Long text long text long text Long text long text long text Long text long text long text Long text long text long text Long text long text long text Long text long text long text Long text long text long text Long text long text long text Long text long text long text Long text long text long text Long text long text long text Long text long text long text Long text long text long text Long text long text long text Long text long text long text Long text long text long text Long text long text long text Long text long text long text Long text long text long text Long text long text long text Long text long text long text Long text long text long text Long text long text long text Long text long text long text Long text long text long text Long text long text long text Long text long text long text Long text long text long text Long text long text long text Long text long text long text Long text long text long text Long text long text long text Long text long text long text Long text long text long text Long text long text long text Long text long text long text Long text long text long text Long text long text long text Long text long text long text Long text long text long text Long text long text long text Long text long text long text Long text long text long text Long text long text long text Long text long text long text Long text long text long text Long text long text long text Long text long text long text Long text long text long text Long text long text long text Long text long text long text Long text long text long text Long text long text long text Long text long text long text Long text long text long text Long text long text long text Long text long text long text Long text long text long text Long text long text long text Long text long text long text Long text long text long text Long text long text long text Long text long text long text Long text long text long text Long text long text long text Long text long text long text Long text long text long text Long text long text long text Long text long text long text Long text long text long text Long text long text long text Long text long text long text Long text long text long text Long text long text long text Long text long text long text Long text long text long text Long text long text long text Long text long text long text Long text long text long text Long text long text long text Long text long text long text Long text long text long text Long text long text long text Long text long text long text Long text long text long text Long text long text long text Long text long text long text Long text long text long text Long text long text long text Long text long text long text Long text long text long text Long text long text long text Long text long text long text Long text long text long text Long text long text long text Long text long text long text Long text long text long text Long text long text long text Long text long text long text Long text long text long text Long text long text long text Long text long text long text Long text long text long text Long text long text long text Long text long text long text Long text long text long text</td></tr><tr class=\"evenRow\"><td>10 Feb 2016</td><td>Sensitivity to PENICILLIN VK</td><td/><td/><td>Long text long text long text Long text long text long text Long text long text long text Long text long text long text Long text long text long text Long text long text long text Long text long text long text Long text long text long text Long text long text long text Long text long text long text Long text long text long text Long text long text long text Long text long text long text Long text long text long text Long text long text long text Long text long text long text Long text long text long text Long text long text long text Long text long text long text Long text long text long text Long text long text long text Long text long text long text Long text long text long text Long text long text long text Long text long text long text Long text long text long text Long text long text long text Long text long text long text Long text long text long text Long text long text long text Long text long text long text Long text long text long text Long text long text long text Long text long text long text Long text long text long text Long text long text long text Long text long text long text Long text long text long text Long text long text long text Long text long text long text Long text long text long text Long text long text long text Long text long text long text Long text long text long text Long text long text long text Long text long text long text Long text long text long text Long text long text long text Long text long text long text Long text long text long text Long text long text long text Long text long text long text Long text long text long text Long text long text long text Long text long text long text Long text long text long text Long text long text long text Long text long text long text Long text long text long text Long text long text long text Long text long text long text Long text long text long text Long text long text long text Long text long text long text Long text long text long text Long text long text long text Long text long text long text Long text long text long text Long text long text long text Long text long text long text Long text long text long text Long text long text long text Long text long text long text Long text long text long text Long text long text long text Long text long text long text Long text long text long text Long text long text long text Long text long text long text Long text long text long text Long text long text long text Long text long text long text Long text long text long text Long text long text long text Long text long text long text Long text long text long text Long text long text long text Long text long text long text Long text long text long text Long text long text long text Long text long text long text Long text long text long text Long text long text long text Long text long text long text Long text long text long text Long text long text long text Long text long text long text Long text long text long text Long text long text long text Long text long text long text Long text long text long text Long text long text long text Long text long text long text Long text long text long text Long text long text long text Long text long text long text Long text long text long text Long text long text long text Long text long text long text Long text long text long text Long text long text long text Long text long text long text Long text long text long text Long text long text long text Long text long text long text Long text long text long text Long text long text long text Long text long text long text Long text long text long text Long text long text long text Long text long text long text Long text long text long text Long text long text long text Long text long text long text Long text long text long text Long text long text long text Long text long text long text Long text long text long text Long text long text long text Long text long text long text Long text long text long text Long text long text long text Long text long text long text Long text long text long text Long text long text long text Long text long text long text Long text long text long text Long text long text long text Long text long text long text Long text long text long text Long text long text long text Long text long text long text Long text long text long text Long text long text long text Long text long text long text Long text long text long text Long text long text long text Long text long text long text Long text long text long text Long text long text long text Long text long text long text Long text long text long text Long text long text long text Long text long text long text Long text long text long text Long text long text long text Long text long text long text Long text long text long text Long text long text long text Long text long text long text Long text long text long text Long text long text long text Long text long text long text Long text long text long text Long text long text long text Long text long text long text Long text long text long text Long text long text long text Long text long text long text Long text long text long text Long text long text long text Long text long text long text Long text long text long text Long text long text long text Long text long text long text Long text long text long text Long text long text long text Long text long text long text Long text long text long text Long text long text long text Long text long text long text Long text long text long text Long text long text long text Long text long text long text Long text long text long text Long text long text long text Long text long text long text Long text long text long text Long text long text long text Long text long text long text Long text long text long text Long text long text long text Long text long text long text Long text long text long text Long text long text long text Long text long text long text Long text long text long text Long text long text long text Long text long text long text Long text long text long text</td></tr><tr class=\"oddRow\"><td>24 Sep 2015</td><td>Feather allergy</td><td/><td/><td>Long text long text long text Long text long text long text Long text long text long text Long text long text long text Long text long text long text Long text long text long text Long text long text long text Long text long text long text Long text long text long text Long text long text long text Long text long text long text Long text long text long text Long text long text long text Long text long text long text Long text long text long text Long text long text long text Long text long text long text Long text long text long text Long text long text long text Long text long text long text Long text long text long text Long text long text long text Long text long text long text Long text long text long text Long text long text long text Long text long text long text Long text long text long text Long text long text long text Long text long text long text Long text long text long text Long text long text long text Long text long text long text Long text long text long text Long text long text long text Long text long text long text Long text long text long text Long text long text long text Long text long text long text Long text long text long text Long text long text long text Long text long text long text Long text long text long text Long text long text long text Long text long text long text Long text long text long text Long text long text long text Long text long text long text Long text long text long text Long text long text long text Long text long text long text Long text long text long text Long text long text long text Long text long text long text Long text long text long text Long text long text long text Long text long text long text Long text long text long text Long text long text long text Long text long text long text Long text long text long text Long text long text long text Long text long text long text Long text long text long text Long text long text long text Long text long text long text Long text long text long text Long text long text long text Long text long text long text Long text long text long text Long text long text long text Long text long text long text Long text long text long text Long text long text long text Long text long text long text Long text long text long text Long text long text long text Long text long text long text Long text long text long text Long text long text long text Long text long text long text Long text long text long text Long text long text long text Long text long text long text Long text long text long text Long text long text long text Long text long text long text Long text long text long text Long text long text long text Long text long text long text Long text long text long text Long text long text long text Long text long text long text Long text long text long text Long text long text long text Long text long text long text Long text long text long text Long text long text long text Long text long text long text Long text long text long text Long text long text long text Long text long text long text Long text long text long text Long text long text long text Long text long text long text Long text long text long text Long text long text long text Long text long text long text Long text long text long text Long text long text long text Long text long text long text Long text long text long text Long text long text long text Long text long text long text Long text long text long text Long text long text long text Long text long text long text Long text long text long text Long text long text long text Long text long text long text Long text long text long text Long text long text long text Long text long text long text Long text long text long text Long text long text long text Long text long text long text Long text long text long text Long text long text long text Long text long text long text Long text long text long text Long text long text long text Long text long text long text Long text long text long text Long text long text long text Long text long text long text Long text long text long text Long text long text long text Long text long text long text Long text long text long text Long text long text long text Long text long text long text Long text long text long text Long text long text long text Long text long text long text Long text long text long text Long text long text long text Long text long text long text Long text long text long text Long text long text long text Long text long text long text Long text long text long text Long text long text long text Long text long text long text Long text long text long text Long text long text long text Long text long text long text Long text long text long text Long text long text long text Long text long text long text Long text long text long text Long text long text long text Long text long text long text Long text long text long text Long text long text long text Long text long text long text Long text long text long text Long text long text long text Long text long text long text Long text long text long text Long text long text long text Long text long text long text Long text long text long text Long text long text long text Long text long text long text Long text long text long text Long text long text long text Long text long text long text Long text long text long text Long text long text long text Long text long text long text Long text long text long text Long text long text long text Long text long text long text Long text long text long text Long text long text long text Long text long text long text Long text long text long text Long text long text long text Long text long text long text Long text long text long text Long text long text long text Long text long text long text Long text long text long text Long text long text long text Long text long text long text Long text long text long text Long text long text long text Long text long text long text Long text long text long text Long text long text long text Long text long text long text</td></tr><tr class=\"evenRow\"><td>24 Sep 2015</td><td>Latex allergy</td><td/><td/><td>Long text long text long text Long text long text long text Long text long text long text Long text long text long text Long text long text long text Long text long text long text Long text long text long text Long text long text long text Long text long text long text Long text long text long text Long text long text long text Long text long text long text Long text long text long text Long text long text long text Long text long text long text Long text long text long text Long text long text long text Long text long text long text Long text long text long text Long text long text long text Long text long text long text Long text long text long text Long text long text long text Long text long text long text Long text long text long text Long text long text long text Long text long text long text Long text long text long text Long text long text long text Long text long text long text Long text long text long text Long text long text long text Long text long text long text Long text long text long text Long text long text long text Long text long text long text Long text long text long text Long text long text long text Long text long text long text Long text long text long text Long text long text long text Long text long text long text Long text long text long text Long text long text long text Long text long text long text Long text long text long text Long text long text long text Long text long text long text Long text long text long text Long text long text long text Long text long text long text Long text long text long text Long text long text long text Long text long text long text Long text long text long text Long text long text long text Long text long text long text Long text long text long text Long text long text long text Long text long text long text Long text long text long text Long text long text long text Long text long text long text Long text long text long text Long text long text long text Long text long text long text Long text long text long text Long text long text long text Long text long text long text Long text long text long text Long text long text long text Long text long text long text Long text long text long text Long text long text long text Long text long text long text Long text long text long text Long text long text long text Long text long text long text Long text long text long text Long text long text long text Long text long text long text Long text long text long text Long text long text long text Long text long text long text Long text long text long text Long text long text long text Long text long text long text Long text long text long text Long text long text long text Long text long text long text Long text long text long text Long text long text long text Long text long text long text Long text long text long text Long text long text long text Long text long text long text Long text long text long text Long text long text long text Long text long text long text Long text long text long text Long text long text long text Long text long text long text Long text long text long text Long text long text long text Long text long text long text Long text long text long text Long text long text long text Long text long text long text Long text long text long text Long text long text long text Long text long text long text Long text long text long text Long text long text long text Long text long text long text Long text long text long text Long text long text long text Long text long text long text Long text long text long text Long text long text long text Long text long text long text Long text long text long text Long text long text long text Long text long text long text Long text long text long text Long text long text long text Long text long text long text Long text long text long text Long text long text long text Long text long text long text Long text long text long text Long text long text long text Long text long text long text Long text long text long text Long text long text long text Long text long text long text Long text long text long text Long text long text long text Long text long text long text Long text long text long text Long text long text long text Long text long text long text Long text long text long text Long text long text long text Long text long text long text Long text long text long text Long text long text long text Long text long text long text Long text long text long text Long text long text long text Long text long text long text Long text long text long text Long text long text long text Long text long text long text Long text long text long text Long text long text long text Long text long text long text Long text long text long text Long text long text long text Long text long text long text Long text long text long text Long text long text long text Long text long text long text Long text long text long text Long text long text long text Long text long text long text Long text long text long text Long text long text long text Long text long text long text Long text long text long text Long text long text long text Long text long text long text Long text long text long text Long text long text long text Long text long text long text Long text long text long text Long text long text long text Long text long text long text Long text long text long text Long text long text long text Long text long text long text Long text long text long text Long text long text long text Long text long text long text Long text long text long text Long text long text long text Long text long text long text Long text long text long text Long text long text long text Long text long text long text Long text long text long text Long text long text long text Long text long text long text Long text long text long text Long text long text long text Long text long text long text Long text long text long text Long text long text long text Long text long text long text Long text long text long text Long text long text long text</td></tr><tr class=\"oddRow\"><td/><td>Feather allergy</td><td/><td/><td>Long text long text long text Long text long text long text Long text long text long text Long text long text long text Long text long text long text Long text long text long text Long text long text long text Long text long text long text Long text long text long text Long text long text long text Long text long text long text Long text long text long text Long text long text long text Long text long text long text Long text long text long text Long text long text long text Long text long text long text Long text long text long text Long text long text long text Long text long text long text Long text long text long text Long text long text long text Long text long text long text Long text long text long text Long text long text long text Long text long text long text Long text long text long text Long text long text long text Long text long text long text Long text long text long text Long text long text long text Long text long text long text Long text long text long text Long text long text long text Long text long text long text Long text long text long text Long text long text long text Long text long text long text Long text long text long text Long text long text long text Long text long text long text Long text long text long text Long text long text long text Long text long text long text Long text long text long text Long text long text long text Long text long text long text Long text long text long text Long text long text long text Long text long text long text Long text long text long text Long text long text long text Long text long text long text Long text long text long text Long text long text long text Long text long text long text Long text long text long text Long text long text long text Long text long text long text Long text long text long text Long text long text long text Long text long text long text Long text long text long text Long text long text long text Long text long text long text Long text long text long text Long text long text long text Long text long text long text Long text long text long text Long text long text long text Long text long text long text Long text long text long text Long text long text long text Long text long text long text Long text long text long text Long text long text long text Long text long text long text Long text long text long text Long text long text long text Long text long text long text Long text long text long text Long text long text long text Long text long text long text Long text long text long text Long text long text long text Long text long text long text Long text long text long text Long text long text long text Long text long text long text Long text long text long text Long text long text long text Long text long text long text Long text long text long text Long text long text long text Long text long text long text Long text long text long text Long text long text long text Long text long text long text Long text long text long text Long text long text long text Long text long text long text Long text long text long text Long text long text long text Long text long text long text Long text long text long text Long text long text long text Long text long text long text Long text long text long text Long text long text long text Long text long text long text Long text long text long text Long text long text long text Long text long text long text Long text long text long text Long text long text long text Long text long text long text Long text long text long text Long text long text long text Long text long text long text Long text long text long text Long text long text long text Long text long text long text Long text long text long text Long text long text long text Long text long text long text Long text long text long text Long text long text long text Long text long text long text Long text long text long text Long text long text long text Long text long text long text Long text long text long text Long text long text long text Long text long text long text Long text long text long text Long text long text long text Long text long text long text Long text long text long text Long text long text long text Long text long text long text Long text long text long text Long text long text long text Long text long text long text Long text long text long text Long text long text long text Long text long text long text Long text long text long text Long text long text long text Long text long text long text Long text long text long text Long text long text long text Long text long text long text Long text long text long text Long text long text long text Long text long text long text Long text long text long text Long text long text long text Long text long text long text Long text long text long text Long text long text long text Long text long text long text Long text long text long text Long text long text long text Long text long text long text Long text long text long text Long text long text long text Long text long text long text Long text long text long text Long text long text long text Long text long text long text Long text long text long text Long text long text long text Long text long text long text Long text long text long text Long text long text long text Long text long text long text Long text long text long text Long text long text long text Long text long text long text Long text long text long text Long text long text long text Long text long text long text Long text long text long text Long text long text long text Long text long text long text Long text long text long text Long text long text long text Long text long text long text Long text long text long text Long text long text long text Long text long text long text Long text long text long text Long text long text long text Long text long text long text Long text long text long text Long text long text long text Long text long text long text Long text long text long text Long text long text long text Long text long text long text</td></tr></tbody></table></div>"
                        }
                    },
                    {
                        "title": "Acute Medications (For the 12 month period 09 Oct 2016 to 09 Oct 2017)",
                        "code": {
                            "coding": [
                                {
                                    "code": "AcuteMedsHeader"
                                }
                            ]
                        },
                        "text": {
                            "status": "generated",
                            "div": "<div xmlns=\"http://www.w3.org/1999/xhtml\"><table summary=\"This table includes information about this patient's acute medications.\" id=\"AcuteMeds\"><thead><tr><th>Type</th><th>Date</th><th>Medication Item</th><th>Dosage Instructions</th><th>Quantity</th></tr></thead><tbody><tr class=\"oddRow\"><td>Acute Medication</td><td>Prescribed: 09 Oct 2017</td><td>Paracetamol 500mg capsules</td><td>take two 4 times/day</td><td>32 capsule</td></tr><tr class=\"oddRow\"><td colspan=\"2\"/><td>Supporting Information: LKJDAALJD;OSJ;OJ;OJojsfojodjoja;lj;j;lajs;ljfad;j;JFD;AJ;OFDJ. hjdfkjdsklkad;lko;kad;okj;oakdOKJOFDKOkjfd;oj;o'J</td><td colspan=\"2\"/></tr></tbody></table></div>"
                        }
                    },
                    {
                        "title": "Current Repeat Medications",
                        "code": {
                            "coding": [
                                {
                                    "code": "RepeatMedsHeader"
                                }
                            ]
                        },
                        "text": {
                            "status": "generated",
                            "div": "<div xmlns=\"http://www.w3.org/1999/xhtml\"><table summary=\"This table includes information about this patient's current repeat medications.\" id=\"RepeatMeds\"><thead><tr><th>Type</th><th>Date</th><th>Medication Item</th><th>Dosage Instructions</th><th>Quantity</th></tr></thead><tbody><tr class=\"oddRow\"><td>Repeat Medication</td><td>Last Issued: 10 Feb 2016</td><td>Aspirin 75mg dispersible tablets</td><td>Long text long text long text Long text long text long text Long text long text long text Long text long text long text Long text long text long text Long text long text long text Long text long text long text</td><td>28 tablet</td></tr><tr class=\"oddRow\"><td colspan=\"2\"/><td>Supporting Information: Long text long text long text Long text long text long text Long text long text long text Long text long text long text Long text long text long text Long text long text long text Long text long text long text Long text long text long text Long text. Long text long text long text Long text long text long text Long text long text long text Long text long text long text Long text long text long text Long text long text long text Long text long text long text Long text long text long text Long text</td><td colspan=\"2\"/></tr><tr class=\"evenRow\"><td>Repeat Medication</td><td>Last Issued: 10 Feb 2016</td><td>Codeine 15mg/5ml linctus</td><td>1x5ml spoon 3 times/day</td><td>200 ml</td></tr><tr class=\"evenRow\"><td colspan=\"2\"/><td>Supporting Information: Long text long text long text Long text long text long text Long text long text long text Long text long text long text Long text long text long text Long text long text long text Long text long text long text Long text long text long text Long text. Long text long text long text Long text long text long text Long text long text long text Long text long text long text Long text long text long text Long text long text long text Long text long text long text Long text long text long text Long text</td><td colspan=\"2\"/></tr><tr class=\"oddRow\"><td>Repeat Medication</td><td>Last Issued: 10 Feb 2016</td><td>Codeine 30mg suppositories</td><td>insert one as directed</td><td>1 suppository</td></tr><tr class=\"oddRow\"><td colspan=\"2\"/><td>Supporting Information: Long text long text long text Long text long text long text Long text long text long text Long text long text long text Long text long text long text Long text long text long text Long text long text long text Long text long text long text Long text. Long text long text long text Long text long text long text Long text long text long text Long text long text long text Long text long text long text Long text long text long text Long text long text long text Long text long text long text Long text</td><td colspan=\"2\"/></tr><tr class=\"evenRow\"><td>Repeat Medication</td><td>Last Issued: 10 Feb 2016</td><td>Diazepam 10mg/2ml emulsion for injection ampoules</td><td>30.0 ampoules (30.0 ampoules supervised)</td><td>420 ampoules</td></tr><tr class=\"evenRow\"><td colspan=\"2\"/><td>Supporting Information: {Batch Number} {Pack Size}</td><td colspan=\"2\"/></tr><tr class=\"oddRow\"><td>Repeat Medication</td><td>Last Issued: 10 Feb 2016</td><td>Levothyroxine sodium 50microgram tablets</td><td>take one each morning</td><td>28 tablet</td></tr><tr class=\"oddRow\"><td colspan=\"2\"/><td>Supporting Information: Long text long text long text Long text long text long text Long text long text long text Long text long text long text Long text long text long text Long text long text long text Long text long text long text Long text long text long text Long text. Long text long text long text Long text long text long text Long text long text long text Long text long text long text Long text long text long text Long text long text long text Long text long text long text Long text long text long text Long text</td><td colspan=\"2\"/></tr><tr class=\"evenRow\"><td>Repeat Medication</td><td>Last Issued: 10 Feb 2016</td><td>Temgesic 400microgram sublingual tablets (Indivior UK Ltd)</td><td>take one 3 times/day</td><td>84 tablet</td></tr><tr class=\"evenRow\"><td colspan=\"2\"/><td>Supporting Information: Long text long text long text Long text long text long text Long text long text long text Long text long text long text Long text long text long text Long text long text long text Long text long text long text Long text long text long text Long text. Long text long text long text Long text long text long text Long text long text long text Long text long text long text Long text long text long text Long text long text long text Long text long text long text Long text long text long text Long text</td><td colspan=\"2\"/></tr></tbody></table></div>"
                        }
                    },
                    {
                        "title": "Discontinued Repeat Medications (For the 6 month period 09 Apr 2017 to 09 Oct 2017)",
                        "code": {
                            "coding": [
                                {
                                    "code": "DiscRepeatMedsHeader"
                                }
                            ]
                        },
                        "text": {
                            "status": "generated",
                            "div": "<div xmlns=\"http://www.w3.org/1999/xhtml\"><table summary=\"This table includes information about this patient's past repeat medications.\" id=\"DiscRepeatMeds\"><tbody><tr><td>No relevant information available for this category</td></tr></tbody></table></div>"
                        }
                    },
                    {
                        "title": "Family History",
                        "code": {
                            "coding": [
                                {
                                    "code": "HistoryHeader"
                                }
                            ]
                        },
                        "text": {
                            "status": "generated",
                            "div": "<div xmlns=\"http://www.w3.org/1999/xhtml\"><table id=\"Treatments\"><thead><tr><th>Date</th><th>Description</th><th>Value</th><th>Supporting Information</th></tr></thead><tbody><tr class=\"oddRow\"><td>17 Feb 2016</td><td>Coronary artery operations NOS</td><td/><td>Long text long text long text long text Long text long text long text long text Long text long text long text long text Long text long text long text long text Long text long text long text long text Long text long text long text long text Long text long text long text long text Long text long text long text long text Long text long text long text long text Long text long text long text long text Long text long text long text long text Long text long text long text long text Long text long text long text long text Long text long text long text long text Long text long text long text long text Long text long text long text long text Long text long text long text long text Long text long text long text long text Long text long text long text long text Long text long text long text long text Long text long text long text long text Long text long text long text long text Long text long text long text long text Long text long text long text long text Long text long text long text long text Long text long text long text long text Long text long text long text long text Long text long text long text long text Long text long text long text long text Long text long text long text long text Long text long text long text long text Long text long text long text long text Long text long text long text long text Long text long text long text long text Long text long text long text long text Long text long text long text long text Long text long text long text long text Long text long text long text long text Long text long text long text long text Long text long text long text long text Long text long text long text long text Long text long text long text long text Long text long text long text long text Long text long text long text long text Long text long text long text long text Long text long text long text long text Long text long text long text long text Long text long text long text long text Long text long text long text long text Long text long text long text long text Long text long text long text long text Long text long text long text long text Long text long text long text long text Long text long text long text long text Long text long text long text long text Long text long text long text long text Long text long text long text long text Long text long text long text long text Long text long text long text long text Long text long text long text long text Long text long text long text long text Long text long text long text long text Long text long text long text long text Long text long text long text long text Long text long text long text long text Long text long text long text long text Long text long text long text long text Long text long text long text long text Long text long text long text long text Long text long text long text long text Long text long text long text long text Long text long text long text long text Long text long text long text long text Long text long text long text long text Long text long text long text long text Long text long text long text long text Long text long text long text long text Long text long text long text long text Long text long text long text long text Long text long text long text long text Long text long text long text long text Long text long text long text long text Long text long text long text long text Long text long text long text long text Long text long text long text long text Long text long text long text long text Long text long text long text long text Long text long text long text long text Long text long text long text long text Long text long text long text long text Long text long text long text long text Long text long text long text long text Long text long text long text long text Long text long text long text long text Long text long text long text long text Long text long text long text long text Long text long text long text long text Long text long text long text long text Long text long text long text long text Long text long text long text long text Long text long text long text long text Long text long text long text long text Long text long text long text long text Long text long text long text long text Long text long text long text long text Long text long text long text long text Long text long text long text long text Long text long text long text long text Long text long text long text long text Long text long text long text long text Long text long text long text long text Long text long text long text long text Long text long text long text long text Long text long text long text long text Long text long text long text long text Long text long text long text long text Long text long text long text long text Long text long text long text long text Long text long text long text long text Long text long text long text long text Long text long text long text long text Long text long text long text long text Long text long text long text long text Long text long text long text long text Long text long text long text long text Long text long text long text long text Long text long text long text long text Long text long text long text long text Long text long text long text long text Long text long text long text long text Long text long text long text long text Long text long text long text long text Long text long text long text long text Long text long text long text long text Long text long text long text long text Long text long text long text long text Long text long text long text long text Long text long text long text long text Long text long text long text long text Long text long text long text long text Long text long text long text long text Long text long text long text long text Long text long text long text long text Long text long text long text long text Long text long text long text long text Long text long text long text long text Long text long text long text long text Long text long text long text long text Long text long text long text long text Long text long text long text long text</td></tr><tr class=\"evenRow\"><td>17 Feb 2016</td><td>Excision of lesion of canthus</td><td/><td>Long text long text long text long text Long text long text long text long text Long text long text long text long text Long text long text long text long text Long text long text long text long text Long text long text long text long text Long text long text long text long text Long text long text long text long text Long text long text long text long text Long text long text long text long text Long text long text long text long text Long text long text long text long text Long text long text long text long text Long text long text long text long text Long text long text long text long text Long text long text long text long text Long text long text long text long text Long text long text long text long text Long text long text long text long text Long text long text long text long text Long text long text long text long text Long text long text long text long text Long text long text long text long text Long text long text long text long text Long text long text long text long text Long text long text long text long text Long text long text long text long text Long text long text long text long text Long text long text long text long text Long text long text long text long text Long text long text long text long text Long text long text long text long text Long text long text long text long text Long text long text long text long text Long text long text long text long text Long text long text long text long text Long text long text long text long text Long text long text long text long text Long text long text long text long text Long text long text long text long text Long text long text long text long text Long text long text long text long text Long text long text long text long text Long text long text long text long text Long text long text long text long text Long text long text long text long text Long text long text long text long text Long text long text long text long text Long text long text long text long text Long text long text long text long text Long text long text long text long text Long text long text long text long text Long text long text long text long text Long text long text long text long text Long text long text long text long text Long text long text long text long text Long text long text long text long text Long text long text long text long text Long text long text long text long text Long text long text long text long text Long text long text long text long text Long text long text long text long text Long text long text long text long text Long text long text long text long text Long text long text long text long text Long text long text long text long text Long text long text long text long text Long text long text long text long text Long text long text long text long text Long text long text long text long text Long text long text long text long text Long text long text long text long text Long text long text long text long text Long text long text long text long text Long text long text long text long text Long text long text long text long text Long text long text long text long text Long text long text long text long text Long text long text long text long text Long text long text long text long text Long text long text long text long text Long text long text long text long text Long text long text long text long text Long text long text long text long text Long text long text long text long text Long text long text long text long text Long text long text long text long text Long text long text long text long text Long text long text long text long text Long text long text long text long text Long text long text long text long text Long text long text long text long text Long text long text long text long text Long text long text long text long text Long text long text long text long text Long text long text long text long text Long text long text long text long text Long text long text long text long text Long text long text long text long text Long text long text long text long text Long text long text long text long text Long text long text long text long text Long text long text long text long text Long text long text long text long text Long text long text long text long text Long text long text long text long text Long text long text long text long text Long text long text long text long text Long text long text long text long text Long text long text long text long text Long text long text long text long text Long text long text long text long text Long text long text long text long text Long text long text long text long text Long text long text long text long text Long text long text long text long text Long text long text long text long text Long text long text long text long text Long text long text long text long text Long text long text long text long text Long text long text long text long text Long text long text long text long text Long text long text long text long text Long text long text long text long text Long text long text long text long text Long text long text long text long text Long text long text long text long text Long text long text long text long text Long text long text long text long text Long text long text long text long text Long text long text long text long text Long text long text long text long text Long text long text long text long text Long text long text long text long text Long text long text long text long text Long text long text long text long text Long text long text long text long text Long text long text long text long text Long text long text long text long text Long text long text long text long text Long text long text long text long text Long text long text long text long text Long text long text long text long text Long text long text long text long text Long text long text long text long text Long text long text long text long text Long text long text long text long text Long text long text long text long text Long text long text long text long text Long text long text long text long text</td></tr><tr class=\"oddRow\"><td>17 Feb 2016</td><td>First cholera vaccination</td><td/><td/></tr><tr class=\"evenRow\"><td>17 Feb 2016</td><td>First tetanus and polio vaccination</td><td/><td/></tr><tr class=\"oddRow\"><td>17 Feb 2016</td><td>Influenza vaccine</td><td/><td/></tr><tr class=\"evenRow\"><td>17 Feb 2016</td><td>Long-term oxygen therapy</td><td/><td>Long text long text long text long text Long text long text long text long text Long text long text long text long text Long text long text long text long text Long text long text long text long text Long text long text long text long text Long text long text long text long text Long text long text long text long text Long text long text long text long text Long text long text long text long text Long text long text long text long text Long text long text long text long text Long text long text long text long text Long text long text long text long text Long text long text long text long text Long text long text long text long text Long text long text long text long text Long text long text long text long text Long text long text long text long text Long text long text long text long text Long text long text long text long text Long text long text long text long text Long text long text long text long text Long text long text long text long text Long text long text long text long text Long text long text long text long text Long text long text long text long text Long text long text long text long text Long text long text long text long text Long text long text long text long text Long text long text long text long text Long text long text long text long text Long text long text long text long text Long text long text long text long text Long text long text long text long text Long text long text long text long text Long text long text long text long text Long text long text long text long text Long text long text long text long text Long text long text long text long text Long text long text long text long text Long text long text long text long text Long text long text long text long text Long text long text long text long text Long text long text long text long text Long text long text long text long text Long text long text long text long text Long text long text long text long text Long text long text long text long text Long text long text long text long text Long text long text long text long text Long text long text long text long text Long text long text long text long text Long text long text long text long text Long text long text long text long text Long text long text long text long text Long text long text long text long text Long text long text long text long text Long text long text long text long text Long text long text long text long text Long text long text long text long text Long text long text long text long text Long text long text long text long text Long text long text long text long text Long text long text long text long text Long text long text long text long text Long text long text long text long text Long text long text long text long text Long text long text long text long text Long text long text long text long text Long text long text long text long text Long text long text long text long text Long text long text long text long text Long text long text long text long text Long text long text long text long text Long text long text long text long text Long text long text long text long text Long text long text long text long text Long text long text long text long text Long text long text long text long text Long text long text long text long text Long text long text long text long text Long text long text long text long text Long text long text long text long text Long text long text long text long text Long text long text long text long text Long text long text long text long text Long text long text long text long text Long text long text long text long text Long text long text long text long text Long text long text long text long text Long text long text long text long text Long text long text long text long text Long text long text long text long text Long text long text long text long text Long text long text long text long text Long text long text long text long text Long text long text long text long text Long text long text long text long text Long text long text long text long text Long text long text long text long text Long text long text long text long text Long text long text long text long text Long text long text long text long text Long text long text long text long text Long text long text long text long text Long text long text long text long text Long text long text long text long text Long text long text long text long text Long text long text long text long text Long text long text long text long text Long text long text long text long text Long text long text long text long text Long text long text long text long text Long text long text long text long text Long text long text long text long text Long text long text long text long text Long text long text long text long text Long text long text long text long text Long text long text long text long text Long text long text long text long text Long text long text long text long text Long text long text long text long text Long text long text long text long text Long text long text long text long text Long text long text long text long text Long text long text long text long text Long text long text long text long text Long text long text long text long text Long text long text long text long text Long text long text long text long text Long text long text long text long text Long text long text long text long text Long text long text long text long text Long text long text long text long text Long text long text long text long text Long text long text long text long text Long text long text long text long text Long text long text long text long text Long text long text long text long text Long text long text long text long text Long text long text long text long text Long text long text long text long text Long text long text long text long text Long text long text long text long text Long text long text long text long text Long text long text long text long text Long text long text long text long text Long text long text long text long text Long text long text long text long text</td></tr><tr class=\"oddRow\"><td>17 Feb 2016</td><td>Nail operations NOS</td><td/><td>Long text long text long text long text Long text long text long text long text Long text long text long text long text Long text long text long text long text Long text long text long text long text Long text long text long text long text Long text long text long text long text Long text long text long text long text Long text long text long text long text Long text long text long text long text Long text long text long text long text Long text long text long text long text Long text long text long text long text Long text long text long text long text Long text long text long text long text Long text long text long text long text Long text long text long text long text Long text long text long text long text Long text long text long text long text Long text long text long text long text Long text long text long text long text Long text long text long text long text Long text long text long text long text Long text long text long text long text Long text long text long text long text Long text long text long text long text Long text long text long text long text Long text long text long text long text Long text long text long text long text Long text long text long text long text Long text long text long text long text Long text long text long text long text Long text long text long text long text Long text long text long text long text Long text long text long text long text Long text long text long text long text Long text long text long text long text Long text long text long text long text Long text long text long text long text Long text long text long text long text Long text long text long text long text Long text long text long text long text Long text long text long text long text Long text long text long text long text Long text long text long text long text Long text long text long text long text Long text long text long text long text Long text long text long text long text Long text long text long text long text Long text long text long text long text Long text long text long text long text Long text long text long text long text Long text long text long text long text Long text long text long text long text Long text long text long text long text Long text long text long text long text Long text long text long text long text Long text long text long text long text Long text long text long text long text Long text long text long text long text Long text long text long text long text Long text long text long text long text Long text long text long text long text Long text long text long text long text Long text long text long text long text Long text long text long text long text Long text long text long text long text Long text long text long text long text Long text long text long text long text Long text long text long text long text Long text long text long text long text Long text long text long text long text Long text long text long text long text Long text long text long text long text Long text long text long text long text Long text long text long text long text Long text long text long text long text Long text long text long text long text Long text long text long text long text Long text long text long text long text Long text long text long text long text Long text long text long text long text Long text long text long text long text Long text long text long text long text Long text long text long text long text Long text long text long text long text Long text long text long text long text Long text long text long text long text Long text long text long text long text Long text long text long text long text Long text long text long text long text Long text long text long text long text Long text long text long text long text Long text long text long text long text Long text long text long text long text Long text long text long text long text Long text long text long text long text Long text long text long text long text Long text long text long text long text Long text long text long text long text Long text long text long text long text Long text long text long text long text Long text long text long text long text Long text long text long text long text Long text long text long text long text Long text long text long text long text Long text long text long text long text Long text long text long text long text Long text long text long text long text Long text long text long text long text Long text long text long text long text Long text long text long text long text Long text long text long text long text Long text long text long text long text Long text long text long text long text Long text long text long text long text Long text long text long text long text Long text long text long text long text Long text long text long text long text Long text long text long text long text Long text long text long text long text Long text long text long text long text Long text long text long text long text Long text long text long text long text Long text long text long text long text Long text long text long text long text Long text long text long text long text Long text long text long text long text Long text long text long text long text Long text long text long text long text Long text long text long text long text Long text long text long text long text Long text long text long text long text Long text long text long text long text Long text long text long text long text Long text long text long text long text Long text long text long text long text Long text long text long text long text Long text long text long text long text Long text long text long text long text Long text long text long text long text Long text long text long text long text Long text long text long text long text Long text long text long text long text Long text long text long text long text Long text long text long text long text Long text long text long text long text Long text long text long text long text Long text long text long text long text Long text long text long text long text</td></tr><tr class=\"evenRow\"><td>17 Feb 2016</td><td>Oxygen enrichment therapy</td><td/><td>Long text long text long text long text Long text long text long text long text Long text long text long text long text Long text long text long text long text Long text long text long text long text Long text long text long text long text Long text long text long text long text Long text long text long text long text Long text long text long text long text Long text long text long text long text Long text long text long text long text Long text long text long text long text Long text long text long text long text Long text long text long text long text Long text long text long text long text Long text long text long text long text Long text long text long text long text Long text long text long text long text Long text long text long text long text Long text long text long text long text Long text long text long text long text Long text long text long text long text Long text long text long text long text Long text long text long text long text Long text long text long text long text Long text long text long text long text Long text long text long text long text Long text long text long text long text Long text long text long text long text Long text long text long text long text Long text long text long text long text Long text long text long text long text Long text long text long text long text Long text long text long text long text Long text long text long text long text Long text long text long text long text Long text long text long text long text Long text long text long text long text Long text long text long text long text Long text long text long text long text Long text long text long text long text Long text long text long text long text Long text long text long text long text Long text long text long text long text Long text long text long text long text Long text long text long text long text Long text long text long text long text Long text long text long text long text Long text long text long text long text Long text long text long text long text Long text long text long text long text Long text long text long text long text Long text long text long text long text Long text long text long text long text Long text long text long text long text Long text long text long text long text Long text long text long text long text Long text long text long text long text Long text long text long text long text Long text long text long text long text Long text long text long text long text Long text long text long text long text Long text long text long text long text Long text long text long text long text Long text long text long text long text Long text long text long text long text Long text long text long text long text Long text long text long text long text Long text long text long text long text Long text long text long text long text Long text long text long text long text Long text long text long text long text Long text long text long text long text Long text long text long text long text Long text long text long text long text Long text long text long text long text Long text long text long text long text Long text long text long text long text Long text long text long text long text Long text long text long text long text Long text long text long text long text Long text long text long text long text Long text long text long text long text Long text long text long text long text Long text long text long text long text Long text long text long text long text Long text long text long text long text Long text long text long text long text Long text long text long text long text Long text long text long text long text Long text long text long text long text Long text long text long text long text Long text long text long text long text Long text long text long text long text Long text long text long text long text Long text long text long text long text Long text long text long text long text Long text long text long text long text Long text long text long text long text Long text long text long text long text Long text long text long text long text Long text long text long text long text Long text long text long text long text Long text long text long text long text Long text long text long text long text Long text long text long text long text Long text long text long text long text Long text long text long text long text Long text long text long text long text Long text long text long text long text Long text long text long text long text Long text long text long text long text Long text long text long text long text Long text long text long text long text Long text long text long text long text Long text long text long text long text Long text long text long text long text Long text long text long text long text Long text long text long text long text Long text long text long text long text Long text long text long text long text Long text long text long text long text Long text long text long text long text Long text long text long text long text Long text long text long text long text Long text long text long text long text Long text long text long text long text Long text long text long text long text Long text long text long text long text Long text long text long text long text Long text long text long text long text Long text long text long text long text Long text long text long text long text Long text long text long text long text Long text long text long text long text Long text long text long text long text Long text long text long text long text Long text long text long text long text Long text long text long text long text Long text long text long text long text Long text long text long text long text Long text long text long text long text Long text long text long text long text Long text long text long text long text Long text long text long text long text Long text long text long text long text Long text long text long text long text Long text long text long text long text Long text long text long text long text Long text long text long text long text</td></tr><tr class=\"oddRow\"><td>17 Feb 2016</td><td>Pneumococcal vaccination</td><td/><td/></tr><tr class=\"evenRow\"><td>17 Feb 2016</td><td>Tuberculosis (BCG) vaccination</td><td/><td/></tr><tr class=\"oddRow\"><td>17 Feb 2016</td><td>Choice &amp; booking letter remind to make initial hospital appt</td><td/><td>Long text long text long text long text Long text long text long text long text Long text long text long text long text Long text long text long text long text Long text long text long text long text Long text long text long text long text Long text long text long text long text Long text long text long text long text Long text long text long text long text Long text long text long text long text Long text long text long text long text Long text long text long text long text Long text long text long text long text Long text long text long text long text Long text long text long text long text Long text long text long text long text Long text long text long text long text Long text long text long text long text Long text long text long text long text Long text long text long text long text Long text long text long text long text Long text long text long text long text Long text long text long text long text Long text long text long text long text Long text long text long text long text Long text long text long text long text Long text long text long text long text Long text long text long text long text Long text long text long text long text Long text long text long text long text Long text long text long text long text Long text long text long text long text Long text long text long text long text Long text long text long text long text Long text long text long text long text Long text long text long text long text Long text long text long text long text Long text long text long text long text Long text long text long text long text Long text long text long text long text Long text long text long text long text Long text long text long text long text Long text long text long text long text Long text long text long text long text Long text long text long text long text Long text long text long text long text Long text long text long text long text Long text long text long text long text Long text long text long text long text Long text long text long text long text Long text long text long text long text Long text long text long text long text Long text long text long text long text Long text long text long text long text Long text long text long text long text Long text long text long text long text Long text long text long text long text Long text long text long text long text Long text long text long text long text Long text long text long text long text Long text long text long text long text Long text long text long text long text Long text long text long text long text Long text long text long text long text Long text long text long text long text Long text long text long text long text Long text long text long text long text Long text long text long text long text Long text long text long text long text Long text long text long text long text Long text long text long text long text Long text long text long text long text Long text long text long text long text Long text long text long text long text Long text long text long text long text Long text long text long text long text Long text long text long text long text Long text long text long text long text Long text long text long text long text Long text long text long text long text Long text long text long text long text Long text long text long text long text Long text long text long text long text Long text long text long text long text Long text long text long text long text Long text long text long text long text Long text long text long text long text Long text long text long text long text Long text long text long text long text Long text long text long text long text Long text long text long text long text Long text long text long text long text Long text long text long text long text Long text long text long text long text Long text long text long text long text Long text long text long text long text Long text long text long text long text Long text long text long text long text Long text long text long text long text Long text long text long text long text Long text long text long text long text Long text long text long text long text Long text long text long text long text Long text long text long text long text Long text long text long text long text Long text long text long text long text Long text long text long text long text Long text long text long text long text Long text long text long text long text Long text long text long text long text Long text long text long text long text Long text long text long text long text Long text long text long text long text Long text long text long text long text Long text long text long text long text Long text long text long text long text Long text long text long text long text Long text long text long text long text Long text long text long text long text Long text long text long text long text Long text long text long text long text Long text long text long text long text Long text long text long text long text Long text long text long text long text Long text long text long text long text Long text long text long text long text Long text long text long text long text Long text long text long text long text Long text long text long text long text Long text long text long text long text Long text long text long text long text Long text long text long text long text Long text long text long text long text Long text long text long text long text Long text long text long text long text Long text long text long text long text Long text long text long text long text Long text long text long text long text Long text long text long text long text Long text long text long text long text Long text long text long text long text Long text long text long text long text Long text long text long text long text Long text long text long text long text Long text long text long text long text Long text long text long text long text Long text long text long text long text Long text long text long text long text Long text long text long text long text Long text long text long text long text</td></tr><tr class=\"evenRow\"><td>10 Feb 2016</td><td>Knee joint operations</td><td/><td>Long text long text long text Long text long text long text Long text long text long text Long text long text long text Long text long text long text Long text long text long text Long text long text long text Long text long text long text Long text long text long text Long text long text long text Long text long text long text Long text long text long text Long text long text long text Long text long text long text Long text long text long text Long text long text long text Long text long text long text Long text long text long text Long text long text long text Long text long text long text Long text long text long text Long text long text long text Long text long text long text Long text long text long text Long text long text long text Long text long text long text Long text long text long text Long text long text long text Long text long text long text Long text long text long text Long text long text long text Long text long text long text Long text long text long text Long text long text long text Long text long text long text Long text long text long text Long text long text long text Long text long text long text Long text long text long text Long text long text long text Long text long text long text Long text long text long text Long text long text long text Long text long text long text Long text long text long text Long text long text long text Long text long text long text Long text long text long text Long text long text long text Long text long text long text Long text long text long text Long text long text long text Long text long text long text Long text long text long text Long text long text long text Long text long text long text Long text long text long text Long text long text long text Long text long text long text Long text long text long text Long text long text long text Long text long text long text Long text long text long text Long text long text long text Long text long text long text Long text long text long text Long text long text long text Long text long text long text Long text long text long text Long text long text long text Long text long text long text Long text long text long text Long text long text long text Long text long text long text Long text long text long text Long text long text long text Long text long text long text Long text long text long text Long text long text long text Long text long text long text Long text long text long text Long text long text long text Long text long text long text Long text long text long text Long text long text long text Long text long text long text Long text long text long text Long text long text long text Long text long text long text Long text long text long text Long text long text long text Long text long text long text Long text long text long text Long text long text long text Long text long text long text Long text long text long text Long text long text long text Long text long text long text Long text long text long text Long text long text long text Long text long text long text Long text long text long text Long text long text long text Long text long text long text Long text long text long text Long text long text long text Long text long text long text Long text long text long text Long text long text long text Long text long text long text Long text long text long text Long text long text long text Long text long text long text Long text long text long text Long text long text long text Long text long text long text Long text long text long text Long text long text long text Long text long text long text Long text long text long text Long text long text long text Long text long text long text Long text long text long text Long text long text long text Long text long text long text Long text long text long text Long text long text long text Long text long text long text Long text long text long text Long text long text long text Long text long text long text Long text long text long text Long text long text long text Long text long text long text Long text long text long text Long text long text long text Long text long text long text Long text long text long text Long text long text long text Long text long text long text Long text long text long text Long text long text long text Long text long text long text Long text long text long text Long text long text long text Long text long text long text Long text long text long text Long text long text long text Long text long text long text Long text long text long text Long text long text long text Long text long text long text Long text long text long text Long text long text long text Long text long text long text Long text long text long text Long text long text long text Long text long text long text Long text long text long text Long text long text long text Long text long text long text Long text long text long text Long text long text long text Long text long text long text Long text long text long text Long text long text long text Long text long text long text Long text long text long text Long text long text long text Long text long text long text Long text long text long text Long text long text long text Long text long text long text Long text long text long text Long text long text long text Long text long text long text Long text long text long text Long text long text long text Long text long text long text Long text long text long text Long text long text long text Long text long text long text Long text long text long text Long text long text long text Long text long text long text Long text long text long text Long text long text long text Long text long text long text Long text long text long text Long text long text long text Long text long text long text Long text long text long text Long text long text long text Long text long text long text Long text long text long text Long text long text long text Long text long text long text Long text long text long text Long text long text long text Long text long text long text</td></tr></tbody></table></div>"
                        }
                    },
                ]
            }
        },
        {
            "fullUrl": "https://int.api.service.nhs.uk/summary-care-record/FHIR/R4/PractitionerRole/44DF3657-3983-43CC-8358-2307FA12ABB5",
            "resource": {
                "resourceType": "PractitionerRole",
                "id": "44DF3657-3983-43CC-8358-2307FA12ABB5",
                "identifier": [
                    {
                        "system": "http://fhir.nhs.net/Id/sds-role-profile-id",
                        "value": "103292576980"
                    }
                ],
                "practitioner": {
                    "reference": "Practitioner/D01B9A29-BD59-425E-BA4D-FAF2F1E89653"
                }
            }
        },
        {
            "fullUrl": "https://int.api.service.nhs.uk/summary-care-record/FHIR/R4/Practitioner/D01B9A29-BD59-425E-BA4D-FAF2F1E89653",
            "resource": {
                "resourceType": "Practitioner",
                "id": "D01B9A29-BD59-425E-BA4D-FAF2F1E89653",
                "identifier": [
                    {
                        "system": "https://fhir.nhs.uk/Id/sds-user-id",
                        "value": "103267400988"
                    }
                ],
                "name": [
                    {
                        "text": "MICHELLEMrsRADFORD"
                    }
                ]
            }
        },
        {
            "fullUrl": "https://int.api.service.nhs.uk/summary-care-record/FHIR/R4/Procedure/E5A47F72-D56E-11E5-8344-256338514300",
            "resource": {
                "resourceType": "Procedure",
                "id": "E5A47F72-D56E-11E5-8344-256338514300",
                "meta": {
                    "profile": [
                        "https://fhir.hl7.org.uk/StructureDefinition/UKCore-Procedure"
                    ]
                },
                "identifier": [
                    {
                        "value": "E5A47F72-D56E-11E5-8344-256338514300"
                    }
                ],
                "status": "completed",
                "category": {
                    "coding": [
                        {
                            "system": "http://snomed.info/sct",
                            "code": "163071000000106",
                            "display": "Treatments"
                        }
                    ]
                },
                "code": {
                    "coding": [
                        {
                            "system": "http://snomed.info/sct",
                            "code": "196411000000103",
                            "display": "Transfer-degraded record Entry"
                        }
                    ]
                },
                "performedDateTime": "2016-02-17T11:53:33+00:00"
            }
        },
        {
            "fullUrl": "https://int.api.service.nhs.uk/summary-care-record/FHIR/R4/Procedure/BB37821E-ACFD-11E7-8986-E9B49D7C3C73",
            "resource": {
                "resourceType": "Procedure",
                "id": "BB37821E-ACFD-11E7-8986-E9B49D7C3C73",
                "meta": {
                    "profile": [
                        "https://fhir.hl7.org.uk/StructureDefinition/UKCore-Procedure"
                    ]
                },
                "identifier": [
                    {
                        "value": "BB37821E-ACFD-11E7-8986-E9B49D7C3C73"
                    }
                ],
                "status": "completed",
                "category": {
                    "coding": [
                        {
                            "system": "http://snomed.info/sct",
                            "code": "163071000000106",
                            "display": "Treatments"
                        }
                    ]
                },
                "code": {
                    "coding": [
                        {
                            "system": "http://snomed.info/sct",
                            "code": "179342005",
                            "display": "Knee joint operations"
                        }
                    ]
                },
                "performedDateTime": "2016-02-10T14:38:05+00:00"
            }
        },
        {
            "fullUrl": "https://int.api.service.nhs.uk/summary-care-record/FHIR/R4/Patient/D8AF92F0-BBCE-422E-83F2-6AFD771FF8D9",
            "resource": {
                "resourceType": "Patient",
                "id": "D8AF92F0-BBCE-422E-83F2-6AFD771FF8D9",
                "identifier": [
                    {
                        "system": "https://fhir.nhs.uk/Id/nhs-number",
                        "value": "9454380516"
                    }
                ]
            }
        }
    ]
}